time,gps_x,gps_y,gps_z,rtk_position_x,rtk_position_y,rtk_position_z,rtk_velocity_x,rtk_velocity_y,rtk_velocity_z,rtk_yaw,vo_x,vo_y,vo_z,imu_quaternion_x,imu_quaternion_y,imu_quaternion_z,imu_quaternion_w,imu_roll,imu_pitch,imu_yaw,imu_omega_x,imu_omega_y,imu_omega_z,imu_acceleration_x,imu_acceleration_y,imu_acceleration_z,attitude_quaternion_x,attitude_quaternion_y,attitude_quaternion_z,attitude_quaternion_w,attitude_roll,attitude_pitch,attitude_yaw,remote_control_roll,remote_control_pitch,remote_control_yaw,remote_control_thrust,velocity_x,velocity_y,velocity_z,angular_velocity_fused_roll,angular_velocity_fused_pitch,angular_velocity_fused_yaw,acceleration_ground_fused_x,acceleration_ground_fused_y,acceleration_ground_fused_z,optic_flow_x,optic_flow_y,trisonica_temp,trisonica_updown,trisonica_westeast,trisonica_northsouth,trisonica_speed,trisonica_speed2,trisonica_dir,trisonica_roll,trisonica_pitch,flow_x,flow_y,flow_magnitude,flow_direction,x,y,delta_z,v_x_global,v_y_global,v_z_global,psi,psi_dot,sensor_psi,v_x,v_y,beta,g,a_y,gamma,a,a_x,sensor_gamma,sensor_a,a_x_filt,a_y_filt,a_filt,gamma_filt,v_x_dot_global,v_y_dot_global,v_z_dot_global,u_x,u_y,u_z,v_x_dot,v_y_dot,w,zeta,w_x,w_y,w_x_dot,w_y_dot,sensor_r_x,sensor_r_y,sensor_r,z,sensor_r_x_cal,sensor_r_y_cal,sensor_r_cal,sensor_beta,sensor_beta_dot,v_z_dot
0.0,39.549054810394,-119.869785820724,1495.23560384501,3.71834821218634e-07,3.03381903583606e-05,-0.173339450216446,-7.3257355374902,-2.54804896583284,-0.0250402745676461,-2.80998017993656,41.7093960653851,1.66312977607414,-1495.32047596736,-0.0609866232424942,0.0115445583616742,0.986046641620579,-0.154468781033969,-0.0419129432700614,-0.116983000975452,-2.82835796747981,-0.0495309189426265,-0.017284541119564,0.0273490921136809,-0.807468201913983,0.0244317070956977,9.79955435624353,-0.0610045067949807,0.011554253460397,0.986044102190574,-0.154471520352163,-0.0419321416022826,-0.117002374118369,-2.82834857799896,0.0,-0.54701030254364,0.0,0.0,-7.45910603974555,-2.48200451933491,0.0147931824050171,-0.0659090946819844,-0.0375884695166046,0.0419589391899934,-0.54209845365618,0.175432085155956,0.117148340449049,-0.196104187285417,7.70654502099661,32.0795690297468,0.48769225310458,-6.64102500030611,0.48769225310458,7.46089599461799,7.41379833302869,-6.34300384930138,94.1299751385967,101.218024963573,0.5075249767773857,-7.841619084629098,7.858025927067954,0.0646318170401952,0.0,0.0,0.0,-2.48200451933491,-7.45910603974555,0.0147931824050171,4.3991449047938564,-0.0419589391899934,4.399154294274707,7.860958863332545,-0.06273033684714546,-0.007979816003259095,7.861209152933628,-0.48769225310458,-6.34300384930138,7.41379833302869,7.400538046267322,-6.34300384930138,7.41379833302869,7.15978345903876,-0.20505884778475203,7.162719337750143,-0.028632542954376585,0.175432085155956,-0.54209845365618,0.117148340449049,0.46166058391949416,0.3339410954250762,0.117148340449049,0.46429268230863135,0.6637785903466861,0.7154749140342166,4.599409579768972,-0.08066207130636527,-0.7109134847960309,-0.14475024230452332,-0.14475024230452332,7.765428122082329,0.6065732591476467,7.7890824259305464,78.00604745495396,9.885316715270408,0.7721620345228803,9.915428420838056,0.07795373030462707,-0.006998215760214994,0.117148340449049
0.1,39.5490523413552,-119.869795140407,1495.242465648,-1.927907047915e-06,2.14676249378803e-05,-0.170753556994581,-7.4078775510973,-2.55938732187318,-0.0242893647001441,-2.81889398858627,41.4681019365937,0.9107076207134859,-1495.3270774710597,-0.0601705796196847,0.005413065533457199,0.986041473387718,-0.155156113882374,-0.029549192896299797,-0.117268885561023,-2.8277212066541804,-0.129052452966312,-0.0007405079814221983,0.0390410074148115,-0.780258976529426,0.07668972158856621,9.64591747693643,-0.0601581011308607,0.005499450007238699,0.986043923762015,-0.155139482115716,-0.0297192521925973,-0.11719756830531798,-2.82773638038831,3.5601181736115222e-307,-0.5462955786813339,0.0,0.0,-7.510085072032011,-2.46308693041041,0.014333841028417497,-0.14600143598469797,0.0034900085416121,0.0310667024978358,-0.469496036775349,0.106322934099451,-0.14020727509165198,0.552631886549207,11.782840131777402,32.1442491997292,-0.398658147336971,-17.7210552153415,-0.398658147336971,7.650697456664019,7.68773664351442,-6.23216798999889,95.21701882460108,177.662709716844,1.9149345942451688,-7.527776533288449,7.767521743475532,0.2490990943097448,-0.24129412879140233,-0.752422155360654,0.006861802989988064,-2.46308693041041,-7.510085072032011,0.014333841028417497,4.3985327071832065,-0.0310667024978358,4.398517533449077,7.9036441005227225,-0.02418570216038729,-0.003060060190128915,7.903681105403774,0.398658147336971,-6.23216798999889,7.68773664351442,7.677734121032354,-6.23216798999889,7.68773664351442,7.1567162754892895,-0.2020626735635018,7.159568225242421,-0.028226493753858137,0.106322934099451,-0.469496036775349,-0.14020727509165198,0.41373624971764006,0.2460760259205651,-0.14020727509165198,0.41448761973135806,0.49161618584027955,0.7678159888701983,4.6323227827991555,-0.061410444643837964,-0.7653562242860292,-0.11802408195627617,-0.11802408195627617,7.712114822741494,0.5919562821242759,7.734799756884173,78.01290925794395,9.81831298040398,0.7536210471703546,9.847193227712527,0.07660646493237283,-0.008209435076482188,-0.14020727509165198
0.2,39.5490501755889,-119.86980357899,1495.24870843615,-4.206719753630539e-06,1.25299373390043e-05,-0.16833507704839604,-7.50080004835281,-2.5638116496627994,-0.0222573891813155,-2.82743338823081,41.2247675170384,0.145678367974589,-1495.3335685552997,-0.0609488398311321,-0.0011754438227593,0.985887069358968,-0.15590603744476303,-0.016807912359499,-0.12083828273608702,-2.82690311013273,-0.0511717514204526,0.0206374269182441,0.0518780291585558,-0.78187329553409,0.006573133092148301,9.78214299309785,-0.0609442832177088,-0.0011040211428972,0.985891478424777,-0.15589445325989199,-0.0169488204952227,-0.120806977202919,-2.8269060413412403,0.0,-0.53603684202009,0.0,0.0,-7.55243019764271,-2.4692884611057,0.0107404359096634,-0.0577515196431613,0.0412554025004085,0.013214734217828,-0.45071228751594206,-0.143723945185613,0.0988422196175659,0.43605811868685196,7.55288823809396,31.3180685024924,0.106244355360433,-12.9466458436225,0.106244355360433,7.24797519131142,7.06297413146005,-6.30221369643408,93.3236962448997,144.609110826885,1.3428315711688896,-7.185008528863988,7.309414763739717,0.18476200796726683,-0.48462854834669855,-1.517451408099551,0.013104591140063349,-2.4692884611057,-7.55243019764271,0.0107404359096634,4.397702368136137,-0.013214734217828,4.397699436927627,7.94584664814342,-0.01041338577211004,-0.001310543768522447,7.945853471743313,-0.106244355360433,-6.30221369643408,7.06297413146005,7.061695490625799,-6.30221369643408,7.06297413146005,7.155233397054493,-0.19953596299267443,7.158015057741315,-0.027879490680081137,-0.143723945185613,-0.45071228751594206,0.0988422196175659,0.4730645689397058,0.0028376313116089957,0.0988422196175659,0.4732021790649919,0.10783988290244377,0.8129186072491827,4.6325002185579525,-0.06487400295149993,-0.8103258762701582,-0.091297921608029,-0.091297921608029,7.658908875364948,0.577134062593568,7.680622949172139,78.01915204609402,9.751356619092409,0.7348096384169756,9.77900307380194,0.075212461115895,-0.009420654392749384,0.0988422196175659
0.30000000000000004,39.5490476911654,-119.86981280729302,1495.25513823883,-6.430386795685891e-06,3.666197775900325e-06,-0.16850399903971203,-7.581062169157941,-2.51495208676701,-0.004909935181112887,-2.82743338823081,40.97450139543891,-0.6330057891431214,-1495.3399691840903,-0.0609474161985204,-0.004312963198255801,0.9857840893154071,-0.156514067886583,-0.010654059048587898,-0.121813088775939,-2.8260299669518703,-0.006317791472094792,-0.017474692134523753,0.026984252068775055,-0.8856921635063513,-0.014086958851799612,9.895532470787739,-0.0609433455112439,-0.004317107032531501,0.9857845477032491,-0.156512571560545,-0.010646094101554801,-0.12180496004521202,-2.82603177262525,1.0079247079834764e-299,-0.499148565931397,0.0,0.0,-7.598284820948161,-2.4865607595970105,0.018183919333544202,-0.025901383154615234,-0.023034826025220678,-0.002985462732837006,-0.44614890013684805,-0.22962820884584403,0.07395826052982574,-0.019842965686793643,8.1079766132509,31.954615346161205,0.24552856336535042,-1.0041483317786792,0.24552856336535042,7.748663406427401,7.748639459651801,-6.318363382393911,93.88312780487982,176.19492153427203,0.4042394692630291,-7.757914753706592,7.7684394104793295,0.052059635274513356,-0.7348946699461933,-2.2961355652172615,0.01953439382009492,-2.4865607595970105,-7.598284820948161,0.018183919333544202,4.396828099420146,0.002985462732837006,4.396826293746766,7.994803603085038,-0.005655043534573245,-0.0007073397762094574,7.994805603103735,-0.24552856336535042,-6.318363382393911,7.748639459651801,7.743845495109895,-6.318363382393911,7.748639459651801,7.155382793885898,-0.19754611828519172,7.1581092053619795,-0.02760103222480335,-0.22962820884584403,-0.44614890013684805,0.07395826052982574,0.49538421173870595,-0.0798275525811154,0.07395826052982574,0.4953673288169809,-0.1036957407944768,0.8610746073863085,4.621565829260593,-0.07809803601410886,-0.85752561259488,-0.06490472211307907,-0.06490472211307907,7.6058835712351,0.5621103863687139,7.626626579664667,78.02558184877405,9.684642643556316,0.7157404090171147,9.71105491007488,0.07377056520655019,-0.010598623571341816,0.07395826052982574
0.4,39.5490454828555,-119.869821348199,1495.2613381406702,-8.61531854960635e-06,-5.06175588750021e-06,-0.168946148884677,-7.643779370870921,-2.46780470490828,0.0106533466899018,-2.82743338823081,40.7414109664507,-1.3618005735618497,-1495.34633661294,-0.057045580574224,-0.0026983830246342,0.985970769297545,-0.156845539381025,-0.0126555776517593,-0.11358112658862,-2.8253623953250395,0.0623833354610526,-0.128744888274648,0.038000385763448996,-0.871873349250506,-0.04059751797124431,9.78680779815493,-0.0570497583032191,-0.0027040450991143,0.9859692408272112,-0.156852256426805,-0.012646451180647202,-0.113591022970826,-2.82534885258378,0.0,-0.460354702577359,0.0,0.0,-7.641763032738872,-2.50546804605034,0.0210698459791146,0.05920588844413971,-0.145829700928062,0.015877815726186,-0.42106700374748407,-0.255710952809391,-0.057097642750055196,0.46376103890735404,2.98603359931809,31.6221436037181,0.04062466096395831,-6.551510359191101,0.04062466096395831,7.42982130436344,7.3752676454529,-6.318091892219469,91.05536892265621,81.4507668436909,-0.7507218219316392,-9.060197550420222,9.091246499054185,-0.0826704706968919,-0.967985098934399,-3.02493034963599,0.025734295660186035,-2.50546804605034,-7.641763032738872,0.0210698459791146,4.396145179378676,-0.015877815726186,4.396158722119936,8.04200788476724,-0.004643237582111492,-0.000577372856715399,8.04200922520695,-0.04062466096395831,-6.318091892219469,7.3752676454529,7.3707748316763535,-6.318091892219469,7.3752676454529,7.157208442711399,-0.19616161514582434,7.1598960936368305,-0.027400699819273577,-0.255710952809391,-0.42106700374748407,-0.057097642750055196,0.4797122224700828,-0.11207897503271558,-0.057097642750055196,0.47978594694078447,0.015610544230153539,0.905289645145112,4.609310680852758,-0.0931505562775782,-0.9004844893012541,-0.03884448390417907,-0.03884448390417907,7.553111348234461,0.5468887005127618,7.572884410155535,78.03178175061414,9.618211479764899,0.6964138266881368,9.643390704906844,0.07227961636381024,-0.011743342607634294,-0.057097642750055196
0.5,39.5490431561491,-119.86983084629,1495.2682139172002,-1.07070128913946e-05,-1.33094507463081e-05,-0.17227162540074303,-7.6798646221276705,-2.4716742367620603,-0.0028038772257576,-2.8197695169329,40.525006878122305,-2.0474482391267705,-1495.35267635933,-0.0486405385967849,0.0019863820665999,0.98627223019216,-0.157756368944818,-0.019312462853249,-0.0954634114632722,-2.82345057408278,0.0237555846794454,-0.212030995962305,-0.0214671478684207,-0.880822830514066,0.0913258601735274,9.82619100071565,-0.048998425952500806,0.0018784453154032,0.9862574105434171,-0.157771031383117,-0.019256530258472505,-0.0962057455933863,-2.82341482978867,-9.785978320356312e-296,-0.449651657992345,0.0,0.0,-7.676991050131811,-2.51912090469723,0.0231122339116834,0.04567993662278651,-0.23679112300637403,0.06788464183164071,-0.34011399309598206,-0.15278694284831804,-0.0899926803491181,-0.6634593895068671,6.507224149086181,31.491313212638403,0.0948243118609259,-4.81473903309138,0.0948243118609259,7.201484364925851,7.12171406542646,-6.30063859969953,95.6205023276588,175.931224756748,-0.7092960067928258,-10.15308988679108,10.177835480813766,-0.0697467953832982,-1.184389187262795,-3.7105780152009107,0.032610072190209394,-2.51912090469723,-7.676991050131811,0.0231122339116834,4.394211156583566,-0.06788464183164071,4.394246900877677,8.079732754065772,0.008963211660198311,0.0011093446102957314,8.079737725711555,-0.0948243118609259,-6.30063859969953,7.12171406542646,7.120629393879499,-6.30063859969953,7.12171406542646,7.1607500484403,-0.19545175059777567,7.163416966996232,-0.027288095957141,-0.15278694284831804,-0.34011399309598206,-0.0899926803491181,0.3708399760658605,-0.038718088228900924,-0.0899926803491181,0.3702315116526467,0.50977167587623,0.9414428766705071,4.613083940642011,-0.09333643952958566,-0.936804674993448,-0.013117208154102666,-0.013117208154102666,7.50066351939919,0.531472113771145,7.5194691194899,78.03865752714417,9.552265487023256,0.6768418176020325,9.576214846202568,0.07073845316045865,-0.012854811487044177,-0.0899926803491181
0.6000000000000001,39.549041044691705,-119.86983905240501,1495.2753865864101,-1.2853065890927802e-05,-2.171474966423151e-05,-0.176940642503298,-7.70760145762798,-2.4819599014203404,-0.02709464863539013,-2.8103055556500904,40.2630123065632,-2.878622548202611,-1495.3602403178302,-0.03939988820030429,0.003646112001798301,0.9864351701886571,-0.15929891946723504,-0.019805174024819797,-0.07664444854850157,-2.82061826224548,-0.008936216565176465,-0.2528974149494459,0.06294238390721531,-0.7402205574544171,0.11025124946817176,9.694823615925023,-0.039337900671410395,0.0036533924739210006,0.9864654302875111,-0.15913882515944502,-0.0197516587545254,-0.07652965188710878,-2.8209481949465,-7.716048186034545e-291,-0.436035315415611,0.0,0.0,-7.700823917959901,-2.51776488156709,0.02380966641785391,-0.03580109100334222,-0.23467743741870997,0.044347537921843705,-0.16535901967494954,-0.05113717941804425,0.08590667994001208,-0.5531543417078738,6.343051874669065,32.146973051081005,-0.03596315197478587,5.673522230774276,-0.03596315197478587,7.24123936715084,7.2198506802399,-6.28888341918714,96.9617137986864,177.59631527786303,0.2991504215504269,-10.235348920915326,10.239719649853518,0.029218865578345188,-1.4463837588219022,-4.541752324276751,0.03978274140013127,-2.51776488156709,-7.700823917959901,0.02380966641785391,4.391744521741396,-0.044347537921843705,4.391414589040377,8.10187684247888,0.037691425819102786,0.004652150932332159,8.101964515737885,0.03596315197478587,-6.28888341918714,7.2198506802399,7.219733471766698,-6.28888341918714,7.2198506802399,7.166042771091327,-0.19548637748349457,7.168708664807901,-0.027272779892473654,-0.05113717941804425,-0.16535901967494954,0.08590667994001208,0.1730484092676179,0.00358671948172945,0.08590667994001208,0.17137688733177686,0.36288500999166895,0.9644466274101595,4.6359378594638,-0.07366122124386747,-0.9616295136941737,0.012277102685011105,0.012277102685011105,7.448610000863943,0.5158634032852271,7.466452035325705,78.04583019635409,9.486846020396827,0.6570241526885136,9.509570345285596,0.06914592111874375,-0.013933030174340721,0.08590667994001208
0.7000000000000001,39.549038723585,-119.869848292994,1495.2884658083203,-1.53524792780992e-05,-3.1438051152728205e-05,-0.17944432357066697,-7.734139929535979,-2.52910899028051,-0.05006660845129672,-2.80998009571087,40.0072660423788,-3.6842376419264706,-1495.3729850282202,-0.03061723573008938,0.004053139371537701,0.986666125628949,-0.159820227760357,-0.01780929457536329,-0.05915927180618885,-2.8198917482853,0.00756354732343527,-0.2133287169679846,-0.01794088517270902,-0.7794194808378946,0.03706388249597725,9.74407466775194,-0.028013844086494894,0.0041496856737274004,0.9867006634810371,-0.160058076217382,-0.0171825911104815,-0.05398040441998578,-2.81950894815753,5.592431391769038e-288,-0.42057975345574694,0.0,0.0,-7.700134632597319,-2.51682674403683,0.02635483185890921,-0.0011709196757848667,-0.1754202204128756,0.0035027594790342925,0.07494871758010846,-0.03517930143949417,-0.04380083413707135,1.110356215618697,13.045846882088185,31.071145237631598,0.16968904026967924,2.4980018054066022e-15,0.16968904026967924,7.449788272324528,7.44978827232453,-6.30063859969953,94.77681946971003,178.48730777146,0.2114420211089284,-10.011902589996998,10.014135069983787,0.021115925987825888,-1.7021300230062977,-5.34736741800061,0.05286196331030624,-2.51682674403683,-7.700134632597319,0.02635483185890921,4.390305274952427,-0.0035027594790342925,4.390688075080197,8.100863401515458,0.050023690498309126,0.006175027549549063,8.101017850839712,-0.16968904026967924,-6.30063859969953,7.44978827232453,7.448653633486796,-6.30063859969953,7.44978827232453,7.173116959106082,-0.19633562629748993,7.175803410571454,-0.02736420159165354,-0.03517930143949417,0.07494871758010846,-0.04380083413707135,-0.059958906790405414,-0.05709485977890769,-0.04380083413707135,-0.06013412774647464,-0.028719483710887443,0.9598991480230338,4.649861069252317,-0.059981385520984955,-0.958023281432309,0.03733844425118639,0.03733844425118639,7.3970190401871445,0.5000650278782565,7.413902866439378,78.05890941826426,9.422716551145173,0.637009447892148,9.44422406764733,0.06750088120259985,-0.014977998600437449,-0.04380083413707135
0.8,39.5490363565677,-119.86985748373499,1495.3000838932903,-1.7939718772639503e-05,-4.1466165500230103e-05,-0.180663885721899,-7.758689148716221,-2.57928061705622,-0.0645393678453984,-2.80998009571087,39.7674843787051,-4.43276096311188,-1495.38482546183,-0.021171589025147396,0.0037497543493164,0.986905656192592,-0.159812461784908,-0.0141632375671304,-0.0406094228865149,-2.8201681881866802,0.015322087288839204,-0.0644976250462165,0.0257582992763376,-0.7222166746207939,0.020770823372688697,9.57302035812985,-0.0214312576432838,0.0037479120754625003,0.9869075556225371,-0.159812236646633,-0.014246560970732298,-0.04111690550501391,-2.82022129931396,0.0,-0.42438968013008604,0.0,0.0,-7.678118878531501,-2.50796742479686,0.0227392216938669,0.0342147303535755,-0.06647860352315,-0.04226514387948611,0.234919912836609,0.0192641913267592,-0.138762884357807,0.43440345660426594,11.0949253113638,31.189899247747096,0.4132979791427401,2.7494695835859395,0.4132979791427401,7.475629453425281,7.4630851605953294,-6.334087657858481,94.57147611427,162.05210948709203,0.2550403410025302,-8.963267485349858,8.96689520343963,0.0284462720367719,-1.941911686680001,-6.09589073918602,0.06448004828030207,-2.50796742479686,-7.678118878531501,0.0227392216938669,4.391017626108857,0.04226514387948611,4.390964514981577,8.077209988443771,0.045704696566171155,0.005658415324678631,8.077339296866514,-0.4132979791427401,-6.334087657858481,7.4630851605953294,7.45341863726107,-6.334087657858481,7.4630851605953294,7.181997890125155,-0.19806961507618387,7.184728614650563,-0.027571634668920285,0.0192641913267592,0.234919912836609,-0.138762884357807,-0.2289776933914227,-0.05592575832098809,-0.138762884357807,-0.22704597781508523,-0.3973102006273864,0.9278095795974107,4.656880318929884,-0.051475024103528465,-0.9263805578088657,0.06206680942451173,0.06206680942451173,7.345956946053074,0.484079148159292,7.361889436479472,78.07052750323426,9.359063709310403,0.6167375634301451,9.379362384356238,0.0658022192801221,-0.015989716645152176,-0.138762884357807
0.8999999999999999,39.5490341392768,-119.869865885974,1495.30526885979,-2.03026118039429e-05,-5.064555810321739e-05,-0.18045006768685,-7.788958800809478,-2.5779711168952097,-0.04923415891342372,-2.80998009571087,39.565836313164404,-5.0521191233276594,-1495.38926929829,-0.0190758780453615,0.0032835042009848,0.987026170962084,-0.159388515705072,-0.0125784429650193,-0.0366211104306832,-2.82115978499368,-0.05371421266632066,0.010809997425584663,-0.04409015700903361,-0.6818770149104851,-0.006434055244206724,9.6034566603215,-0.019062147344090702,0.0033146061721988,0.987017837261043,-0.159440571107055,-0.0126316636883488,-0.0365746576837446,-2.8210531450345897,-2.9320446695278052e-282,-0.448258270026193,0.0,0.0,-7.654188142590969,-2.5031120681715104,0.016774120345106107,0.0391600395367466,-0.0182209645143123,0.047102623441084575,0.31242466541829494,0.02380179814339263,-0.030688673292103154,0.3567500093457032,6.402539250432749,31.549892132482597,0.32999517810463197,-5.208236186077242e-17,0.32999517810463197,7.530000209808351,7.53000020980835,-6.335536530096219,92.9554771701747,177.72197972137573,0.023056367012539204,-7.931349883070437,7.931383395331563,0.0029069833516450565,-2.143559752220696,-6.715248899401799,0.06966501477995735,-2.5031120681715104,-7.654188142590969,0.016774120345106107,4.391849471829486,-0.047102623441084575,4.391956111788577,8.053003556460846,0.03605367713561636,0.004477017301641814,8.053084263063813,-0.32999517810463197,-6.335536530096219,7.53000020980835,7.519684016647407,-6.335536530096219,7.53000020980835,7.192705520315753,-0.20075814813561801,7.195506690707997,-0.027904109073034238,0.02380179814339263,0.31242466541829494,-0.030688673292103154,-0.3040109308078252,-0.07584887016925212,-0.030688673292103154,-0.30570915358561057,0.30346872392043794,0.8922962241225697,4.6604640726628395,-0.04631158169953068,-0.8910935915962379,0.08646218706122169,0.08646218706122169,7.295487820350294,0.46790765364124304,7.310477420060576,78.07571246973392,9.29538118335053,0.5961739785337167,9.314479843580523,0.06404885655809649,-0.01696818411095429,-0.030688673292103154
1.0,39.5490316163987,-119.869875634726,1495.31061286523,-2.25313255120935e-05,-5.92927848402751e-05,-0.179927942201732,-7.80651114601127,-2.57513151957067,-0.0340173030644034,-2.80998009571087,39.2676747387438,-5.972676667911021,-1495.3954833491,-0.0237794144837168,0.0020238508474488,0.986990025289535,-0.158999577023958,-0.0115732078502873,-0.0463173238510247,-2.8218783839979604,-0.030576645388059598,0.12924539997309403,-0.011917810486775203,-0.675412442242348,0.013636384155541997,9.43401827931404,-0.0235945741502271,0.0020771262069848,0.9869909349666321,-0.159039772747726,-0.011617009510939202,-0.0459308404936159,-2.8217942216293204,0.0,-0.457883711799916,0.0,0.0,-7.621392376397321,-2.49570747278804,0.0057985878344276,-0.0089725486446178,0.145326317880129,0.04048412932176311,0.349902101849686,0.027160205699125604,-0.121043874364302,-0.656324585822605,5.041118879109959,31.197576365096605,-0.02435997547881471,2.7755575615628914e-17,-0.02435997547881471,7.678511538336901,7.6771098391803,-6.275998225816849,93.46820806959988,179.579293812202,-0.049150454684387695,-5.839775187564203,5.83998202124683,-0.0084162990168425,-2.4417213266413,-7.63580644398516,0.07500902022002265,-2.49570747278804,-7.621392376397321,0.0057985878344276,4.3925905484242165,-0.04048412932176311,4.392674710792857,8.019567260700367,0.026804772710667724,0.003342408888280164,8.01961205699735,0.02435997547881471,-6.275998225816849,7.6771098391803,7.676911562786272,-6.275998225816849,7.6771098391803,7.205254243348063,-0.2044704045122155,7.208154885794745,-0.028370344315552853,0.027160205699125604,0.349902101849686,-0.121043874364302,-0.3407001428867693,-0.08421739897065134,-0.121043874364302,-0.34178531077162844,0.24044779911611985,0.846518693136123,4.669316267296903,-0.03645058347638854,-0.8457335589848144,0.11052456063195881,0.11052456063195881,7.245673293625209,0.45155219701683846,7.259730082074974,78.08105647517398,9.232543019744492,0.5753744221790945,9.250454385441326,0.062239760976684794,-0.01791340070135796,-0.121043874364302
1.1,39.54902932959221,-119.869884880339,1495.31255207771,-2.45257010656023e-05,-6.69960732639717e-05,-0.17722879631179,-7.79660514438011,-2.5675776893349203,-0.033415446316552806,-2.8099800957108694,38.9900110952573,-6.83568919191841,-1495.3978271484402,-0.0319203825750744,0.0013599332209691998,0.9868331510666671,-0.15855810462355302,-0.012832344298516901,-0.0626097540404578,-2.8225672970664095,0.05267031254786281,0.16044597962093302,-0.038232517503103504,-0.8207716999160241,0.03639458695875511,9.76632759228605,-0.0317728493052552,0.0012156500159946002,0.9868209816935432,-0.158664776856479,-0.012504977912052802,-0.062361739764040004,-2.82236322293926,0.0,-0.45715467007572796,0.0,0.0,-7.605055676896461,-2.50133755713361,-0.007772683621227199,0.021648114354333003,0.173365551728404,-0.032271570406319304,0.16183246150293104,-0.07332468926815551,0.01278048432674821,-2.19818925909043,12.9216105914909,31.3209193632532,0.3115400812032241,1.734723475976807e-18,0.3115400812032241,7.55726646408856,7.5518925498971505,-6.32565285441782,93.0313760528654,177.162336191845,-0.0922521857054467,-5.24846806520182,5.249278759716497,-0.0175751640064069,-2.7193849701277983,-8.49881896799255,0.07694823270003326,-2.50133755713361,-7.605055676896461,-0.007772683621227199,4.393159549734157,0.032271570406319304,4.3933636238613065,8.005836802924705,0.011768957411775638,0.0014700460706073316,8.005845453381061,-0.3115400812032241,-6.32565285441782,7.5518925498971505,7.545083682255616,-6.32565285441782,7.5518925498971505,7.2196526601225015,-0.20927461702486863,7.222685123840359,-0.02897868403861287,-0.07332468926815551,0.16183246150293104,0.01278048432674821,-0.13064443108037382,-0.12040883804793845,0.01278048432674821,-0.13026462834265073,-0.37876976409502533,0.8166674771247866,4.667243644331656,-0.03685620527382643,-0.8158353929109581,0.13425390643172505,0.13425390643172505,7.196572264905702,0.43501423568166697,7.209708021082108,78.08299568765399,9.17020551444517,0.5543152762271949,9.18694370302874,0.06037395953751526,-0.018825365996252997,0.01278048432674821
1.2,39.5490274727899,-119.86989203613598,1495.3142089843802,-2.6522720271379003e-05,-7.47036288244981e-05,-0.17406187386070804,-7.77396167204076,-2.5596641987667006,-0.03298496964853641,-2.80998009571087,38.7832352258876,-7.4775901438987,-1495.39953613281,-0.0348771008740243,0.0027230952924609,0.9868765740862672,-0.15764280969176603,-0.016413742503082602,-0.0680386199822885,-2.8242300191874206,0.047551034369416004,0.022936466136319205,-0.052098272595968095,-0.8776595718917151,0.020210436870483107,9.84451653041132,-0.03490253031490541,0.0027786439103593,0.986872110242513,-0.157663854387176,-0.016527425225470602,-0.0680664281288573,-2.82418525019918,0.0,-0.450547977530532,0.0,0.0,-7.613794545130119,-2.50724905575534,-0.0148177683441222,0.0487837931473944,0.0327085656231395,-0.0636867473347142,-0.030572336332776704,-0.07428286832153322,-0.0882743955147335,0.632116784994027,7.055961763400781,31.423433429750993,0.362725072164785,0.332091981563333,0.362725072164785,7.32305909590064,7.32305909590064,-6.33548018771273,89.68584858982202,59.792553644272,-0.6444851643317937,-6.63983229114627,6.671036949499869,-0.09676035995840591,-2.9261608394974985,-9.14071991997284,0.07860513937021096,-2.50724905575534,-7.613794545130119,-0.0148177683441222,4.394981576994077,0.0636867473347142,4.395026345982317,8.015992305193748,-0.005706672746068175,-0.0007119108358288964,8.015994336514916,-0.362725072164785,-6.33548018771273,7.32305909590064,7.3130479931871175,-6.33548018771273,7.32305909590064,7.235903360351354,-0.2152377429383927,7.239103862104012,-0.02973703271140545,-0.07428286832153322,-0.030572336332776704,-0.0882743955147335,0.052229199078226436,-0.06103050908001385,-0.0882743955147335,0.05186575965292569,-0.5715429856579013,0.8077388385123384,4.657387096770851,-0.04440476074807989,-0.8065173578195123,0.15765019063049465,0.15765019063049465,7.148240646883341,0.4182950805368447,7.160468917616813,78.08465259432417,9.108812412662399,0.533022265193447,9.124394571929939,0.05845055152263843,-0.01970407940682758,-0.0882743955147335
1.3,39.54902525569649,-119.86990076909402,1495.3154028582403,-2.90268283966725e-05,-8.440296316674192e-05,-0.174988415033162,-7.730279464961729,-2.5625161937371006,-0.0252892916635382,-2.80998009571087,38.548326787072504,-8.20935898406071,-1495.40122975336,-0.03281150693919221,0.0038417390199367006,0.987075172532172,-0.156815624702587,-0.017909596060237502,-0.0636152457770577,-2.82591829055095,-0.008549629197792799,-0.0223979513484728,0.0042846640070351005,-0.697880471562521,0.041201960373295696,9.707821897161882,-0.0328082655727306,0.0038526566720587,0.987077542608258,-0.15680143514393902,-0.017932095606416305,-0.06360315360196651,-2.8259463785063,-7.394076163542342e-273,-0.44410694288606106,0.0,0.0,-7.62697076288998,-2.5047111955788006,-0.020379011117598603,0.018613735499585702,-0.0210491767953568,-0.0355989818082587,-0.025998851884785793,0.0298835138656292,0.02161032534607811,-0.532359828732875,2.63444138815849,31.2776141301621,0.526024044836237,2.168404344971009e-18,0.526024044836237,7.20829622443226,7.20829622443226,-6.35299847725936,95.8913924967245,177.03554511929602,-0.10190624858109942,-7.656720522876464,7.657398647643828,-0.013308600163757603,-3.1610692783125955,-9.87248876013485,0.07979901323028571,-2.5047111955788006,-7.62697076288998,-0.020379011117598603,4.396742705301197,0.0355989818082587,4.396714617345847,8.027707253040308,-0.013321063034991809,-0.00165938422868872,8.027718305423798,-0.526024044836237,-6.35299847725936,7.20829622443226,7.190737177117244,-6.35299847725936,7.20829622443226,7.254002717095647,-0.22242512726883445,7.257411959980747,-0.03065279521973478,0.0298835138656292,-0.025998851884785793,0.02161032534607811,0.015437637821266533,0.0364779938974676,0.02161032534607811,0.014963421540617193,-0.24930021056554075,0.8014631735896883,4.660700081439893,-0.041408304519010744,-0.8003927604228538,0.18071336584308192,0.18071336584308192,7.100731117433812,0.40139595204573963,7.112067288237052,78.08584646818424,9.048410629757315,0.511495976845948,9.06285623073845,0.056468722545329725,-0.020549540152714967,0.02161032534607811
1.4000000000000001,39.5490228349326,-119.86991013983,1495.3157986345298,-3.171818235850491e-05,-9.487400958846851e-05,-0.17783570333057402,-7.68590104614138,-2.56830453064501,-0.013481058688845303,-2.8099800957108703,38.28851706757371,-9.018878293765281,-1495.4016953906,-0.030466587717445495,0.0021171396745730997,0.987187809017646,-0.156611386870523,-0.013748125064112198,-0.05952644781339159,-2.8265177086769597,-0.053815639840326404,-0.022589931260870187,0.015377586214850627,-0.7377927666171223,-0.0633619791608694,9.59812464601267,-0.030541897832611492,0.0021958767888943975,0.987184314283394,-0.156611588461726,-0.013927663160054293,-0.05964845187375169,-2.82650694436242,-1.1584447006945058e-267,-0.436462425851325,0.0,0.0,-7.628606527106749,-2.49765536601286,-0.029843585436520832,-0.013703850143333408,-0.03483854906202853,-0.009655246728611316,0.05668242251064103,0.025475472097186768,-0.16958360747297269,0.801901604841649,10.2597211492737,31.271629513017295,0.6891108756813517,-4.935099190774679,0.6891108756813517,7.457507548774437,7.412358944250587,-6.370451769779301,94.9543040514259,178.355631768583,0.41756055087771204,-7.612659324320904,7.62410249156052,0.05479590353852463,-3.4208789978113927,-10.682008069839421,0.08019478951973724,-2.49765536601286,-7.628606527106749,-0.029843585436520832,4.397303271157316,0.009655246728611316,4.397314035471856,8.027067172466584,-0.010605729482578763,-0.0013212451177090601,8.027074178851752,-0.6891108756813517,-6.370451769779301,7.412358944250587,7.384152680615365,-6.370451769779301,7.412358944250587,7.273940695351389,-0.23090015983022166,7.277604559420543,-0.031732820072678636,0.025475472097186768,0.05668242251064103,-0.16958360747297269,-0.06178673360757943,0.006655542829505413,-0.16958360747297269,-0.061889134542470636,-0.07084777122779587,0.7846840934886701,4.681871245424374,-0.023943064297892714,-0.7843187210861174,0.2034433660482847,0.2034433660482847,7.054092878444338,0.3843180434599355,7.064554246111215,78.0862422444737,8.989025417438095,0.48973620287847724,9.002356330636882,0.054427759356863926,-0.02136174723713376,-0.16958360747297269
1.5,39.5490201016898,-119.86992039097902,1495.31543379493,-3.39052654035795e-05,-0.0001034535842409,-0.17946506159533804,-7.693102171625531,-2.5677230121761005,-0.0438528774454499,-2.80998009571087,38.00857172433069,-9.87983035161167,-1495.4012561969303,-0.028981677883260004,0.001026476302784,0.987287709446647,-0.156268215176576,-0.0110922587336571,-0.05693425562672691,-2.82731845590895,-0.0468102383452679,-0.07569248877678832,-0.05015338674454219,-0.8739470115489449,-0.07510608185959142,9.87678862958436,-0.029153169228226698,0.0010602862654104002,0.9872696088207511,-0.156357446699628,-0.01122885944359,-0.05726379861846931,-2.82713290222615,0.0,-0.430938697302612,0.0,0.0,-7.62022974774051,-2.49595532773418,-0.0363438698414467,-0.020257771013252896,-0.0765889348550158,0.017984898861111,0.09799802687532622,-0.012954011636122401,0.007196519698379198,-0.234051403749512,9.30501141059531,30.994261411635204,0.6479697052240481,-6.457022907573421,0.6479697052240481,8.548698110750777,8.49335858201718,-6.353298513965669,93.55960579854911,177.432306105713,0.2091713800948231,-7.45071328446216,7.45364884559983,0.0280666354055842,-3.700824341054407,-11.54296012768581,0.07982994991994019,-2.49595532773418,-7.62022974774051,-0.0363438698414467,4.397929229021047,-0.017984898861111,4.398114782703846,8.018567122186566,-0.016604619318079106,-0.0020707684217221474,8.018584314353378,-0.6479697052240481,-6.353298513965669,8.49335858201718,8.472491044254602,-6.353298513965669,8.49335858201718,7.295700675768018,-0.24072392718003505,7.299670976113847,-0.03298334689541657,-0.012954011636122401,0.09799802687532622,0.007196519698379198,-0.08918584665503955,-0.042629853921280644,0.007196519698379198,-0.08888721425597665,0.10158326478227463,0.7568126343516599,4.698573656843158,-0.010455278808547784,-0.7567404116732069,0.2258400981732877,0.2258400981732877,7.008371422904379,0.3670625910697368,7.017977268924828,78.0858774048739,8.930720873055304,0.4677454070243543,8.942961538451236,0.052327065316521135,-0.022140699377449162,0.007196519698379198
1.6,39.5490179775458,-119.86992857638901,1495.3156720606303,-3.59440847436392e-05,-0.00011149184318000002,-0.18122557201507206,-7.7043186769054905,-2.56698223405829,-0.0823147244729489,-2.8099800957108703,37.78310137667259,-10.5725050487165,-1495.40159992724,-0.0242013161156888,0.0030556532888201,0.9875801473473949,-0.155210432280634,-0.0135529784672529,-0.0468824320784987,-2.8295036194919096,0.0841365950636501,-0.0648401517148129,0.010196932845558502,-0.7316764394857012,-0.0352727085539131,9.874523394094659,-0.0241555736591815,0.0028490335334936,0.98758837711476,-0.155169733852194,-0.0131374198152821,-0.04684389667339651,-2.8295934191093606,3.9696644133184383e-264,-0.43070697880526193,0.0,0.0,-7.61473906238138,-2.49660899556525,-0.0316844882944612,0.012437319730480198,-0.089174065699226,0.0271867835940205,0.130036066232688,0.0321241607315524,0.08941596625202179,-0.329971735677816,10.9516925515398,30.960816365678,0.706447745054761,2.8340991433841505,0.706447745054761,8.19046002012287,8.18049627104133,-6.36482154881689,95.4799404002028,174.728480926791,-0.7212425482858509,-8.240619113539529,8.272121504661962,-0.0873003986461531,-3.9262946887125096,-12.23563482479064,0.08006821562025834,-2.49660899556525,-7.61473906238138,-0.0316844882944612,4.400389745904257,-0.0271867835940205,4.400299946286806,8.013477039815772,-0.038641910403608204,-0.004822077945063056,8.013570207148259,-0.706447745054761,-6.36482154881689,8.18049627104133,8.153252046467946,-6.36482154881689,8.18049627104133,7.319259294565933,-0.2519548606768905,7.32359460052975,-0.03440995880919124,0.0321241607315524,0.130036066232688,0.08941596625202179,-0.13361905231160523,-0.009342862694438885,0.08941596625202179,-0.1325685030558028,0.2085178034226845,0.7262511222532203,4.69850372147666,-0.010083860828685681,-0.7261811126191934,0.2479034353364247,0.2479034353364247,6.963608311202534,0.3496309512745576,6.972379974867846,78.08611567057422,8.873706615444007,0.4455337443804696,8.884884321945695,0.050166176415631286,-0.02288639498766372,0.08941596625202179
1.7000000000000004,39.5490156490934,-119.86993775609902,1495.3145301536101,-3.8003581344573414e-05,-0.00011962534803080004,-0.18516181598256504,-7.70953601848038,-2.5686185419903,-0.06442227977100223,-2.81570928937375,37.5227846329573,-11.371421015486305,-1495.4002764019897,-0.022890156283480196,0.0060556783963225955,0.9877352346510191,-0.154337129265956,-0.01904693923459169,-0.0433657834504526,-2.8311824162835504,0.08285130185018699,-0.0021689607638920526,0.016263771043910455,-0.6898080434663157,-0.17076342004144693,9.673374753181722,-0.02287361678454711,0.0060410039782741246,0.987739894689819,-0.154298913723866,-0.019011625316118247,-0.043335673837525505,-2.83125726893258,8.820911899546635e-259,-0.43420714999028404,0.0,0.0,-7.589784922509069,-2.47685803667025,-0.018663253244583858,0.05953740120824342,-0.02820130827481514,-0.020653782520087545,0.20679796404503936,0.10057990628504004,0.07379209835976014,-0.3138820955375431,10.658168260619863,31.1957767052006,1.278870180999498,1.7658942884357653e-16,1.278870180999498,8.394664217833451,8.39466421783345,-6.440093168039579,83.92378449696216,8.684850153968597,-0.8519024101699401,-8.335251687536598,8.378672831125167,-0.10185110471809583,-4.186611432427803,-13.034550791560445,0.07892630860010286,-2.47685803667025,-7.589784922509069,-0.018663253244583858,4.402053595727477,0.020653782520087545,4.4019787430784465,7.983608033940387,-0.040788039503062645,-0.005108928752191529,7.983712225760895,-1.278870180999498,-6.440093168039579,8.39466421783345,8.291537422140934,-6.440093168039579,8.39466421783345,7.344586300699103,-0.26464838191846585,7.349352807864716,-0.03601754021992235,0.10057990628504004,0.20679796404503936,0.07379209835976014,-0.22763436672425025,0.03262377304252799,0.07379209835976014,-0.22847679402156723,-0.13226793101610046,0.6770983890551177,4.739011023766991,0.018023613522598833,-0.6768584621740527,0.2696332160797244,0.2696332160797244,6.919840957558686,0.3320246842090437,6.927801907447328,78.08497376355406,8.817805048257902,0.4230919401936141,8.827949516107312,0.04794477773088757,-0.023598832158273745,0.07379209835976014
1.7999999999999998,39.5490135445961,-119.869945949872,1495.3130729555603,-4.00909408369679e-05,-0.00012790256571159998,-0.19058215993559896,-7.71280135915093,-2.57168822837514,-0.02899871566513805,-2.82634197913997,37.296659024376495,-12.069856113340903,-1495.39884514328,-0.024274159485630498,0.007655080611815301,0.9876526798737691,-0.154583478743834,-0.022639706236379505,-0.0455975693785477,-2.8305643148580604,-0.00034840771666540694,0.04140639493646196,0.030662733001543332,-0.6840373553096989,0.020670077748824366,9.682208956190458,-0.0249494812676942,0.007319577388800001,0.987550732224239,-0.15513727284151502,-0.022223857997009204,-0.04701917940690739,-2.82943102364791,3.225933494691341e-256,-0.43165220644096,0.0,0.0,-7.57240719127638,-2.4534897329861396,-0.020341633398381603,-0.05864526048097565,0.054980336880962495,-0.016903117822384146,0.18541908569225193,0.2680970347350828,-0.1490150034313278,-0.09635479711351624,9.205653980409533,31.2528769925108,0.9111298631192071,1.942890293094024e-15,0.9111298631192071,7.004730918771881,7.00473091877188,-6.40852809442686,95.04007366610881,178.63829887224966,0.08491178098588764,-6.476069140198231,6.4766257819313635,0.013110872319186968,-4.412737041008604,-13.732985889415042,0.0774691105502825,-2.4534897329861396,-7.57240719127638,-0.020341633398381603,4.400227350442806,0.016903117822384146,4.401360641652957,7.959954518654356,-0.009305982845501326,-0.0011690994695894687,7.95995995846478,-0.9111298631192071,-6.40852809442686,7.00473091877188,6.949777908307181,-6.40852809442686,7.00473091877188,7.371644431282584,-0.27885654688032147,7.3769168759718,-0.03781024044829787,0.2680970347350828,0.18541908569225193,-0.1490150034313278,-0.2587951645333361,0.19819515681988378,-0.1490150034313278,-0.25895246465782673,0.06364710773025012,0.6471215229575297,4.829861008598865,0.07584395952740212,-0.6426616211336089,0.29102925589485334,0.29102925589485334,6.87710242750609,0.3142456436022451,6.884278329856597,78.08351656550424,8.76318071638048,0.40042901690798305,8.772324644330292,0.04566272016794567,-0.024278008550030608,-0.1490150034313278
1.9000000000000004,39.5490110312627,-119.869955991847,1495.3104531114402,-4.245959457835631e-05,-0.00013738343558530004,-0.19379423923892303,-7.69134801151194,-2.5563023003118395,-0.049695019407828465,-2.82743338823081,37.022746422064,-12.922799015296903,-1495.3962831479,-0.024297904606241892,0.0032611443242736692,0.987309824975329,-0.15690355762088604,-0.01408109717865174,-0.046973867410678806,-2.8260600214692997,-0.15846749993876058,0.006430198447895486,-0.007364032881378348,-0.7709934310492474,-0.05220370381477674,9.73584405287641,-0.024274214523602098,0.0032069656076938726,0.987280606546395,-0.157090615453065,-0.013974675760119844,-0.04694092492480009,-2.82568119107337,4.6246982579895063e-253,-0.428568503087296,0.0,0.0,-7.557058891869919,-2.43258539820671,-0.030829026641735112,-0.11196812318788907,-0.016223761423531744,0.07233769786559766,0.1477466160434182,0.16842730085306212,-0.130216017285104,-0.18952126012802573,5.738656787986137,31.2272109687177,1.5180256583247416,-6.966572889810403,1.5180256583247416,7.428218419446275,7.3653046285610255,-6.492624817418909,96.6341924553021,175.39293190540582,1.5448846446998656,-7.075959824184745,7.24264288771068,0.2149555408695217,-4.686649643321097,-14.585928791371042,0.07484926643019207,-2.43258539820671,-7.557058891869919,-0.030829026641735112,4.3964775178682665,-0.07233769786559766,4.396856348264196,7.938850063234932,0.03564390878426016,0.004489777360137317,7.938930079976691,-1.5180256583247416,-6.492624817418909,7.3653046285610255,7.204355051100556,-6.492624817418909,7.3653046285610255,7.400389306273148,-0.29462769012658147,7.406251910392414,-0.039791443538529536,0.16842730085306212,0.1477466160434182,-0.130216017285104,-0.1927626595766561,0.1141900840610223,-0.130216017285104,-0.1953410578810408,0.6884682213355916,0.6316797573414726,4.9466644418061465,0.14663706520279188,-0.614424028618424,0.31209137577716867,0.31209137577716867,6.835421247322788,0.2962960724900036,6.841840029621039,78.08089672138415,8.709776034191853,0.37754402220775657,8.717954923861878,0.04332003734397091,-0.024923921382860658,-0.130216017285104
2.0,39.54900915574339,-119.869963387561,1495.3080330389298,-4.49973116565933e-05,-0.00014761152529859997,-0.196428931564565,-7.64643965424722,-2.51564848120927,-0.10000203837042898,-2.82743338823081,36.81974603114419,-13.558526729910504,-1495.39376144218,-0.024880014187646803,-0.0016394519188004,0.98712502601998,-0.15799484275601,-0.0046297687501971,-0.04964619362703051,-2.82405979717007,-0.10093267003435101,0.0222927057529509,0.03281860402419991,-0.806343447502518,-0.171774272841406,9.653196585112271,-0.0248511714002797,-0.0016263382611225,0.9871102794338,-0.15809182531011204,-0.004652520649007,-0.049596253454153,-2.8238621699923705,0.0,-0.42732308875529706,0.0,0.0,-7.54132764685413,-2.42122790832678,-0.0359294796032436,-0.10346868351757102,0.014451937412361,0.0598783349216257,0.18596718311880603,0.102441697038211,-0.23497087014146703,-0.19403853838182103,8.727232809702041,31.444959051736202,1.25550836658041,-2.1220026880896894,1.25550836658041,7.12570987765007,7.11986207792683,-6.46284345517841,87.2062956418033,26.0541264847768,1.126579919591384,-6.513934200900752,6.610636965443726,0.1712551468037339,-4.889650034240908,-15.221656505984644,0.0724291939197883,-2.42122790832678,-7.54132764685413,-0.0359294796032436,4.394658496787267,-0.0598783349216257,4.394856123964967,7.920280034993424,0.05595916860961747,0.007065184217967693,7.920477716733184,-1.25550836658041,-6.46284345517841,7.11986207792683,7.0052667366578,-6.46284345517841,7.11986207792683,7.430769343353314,-0.312006070510988,7.437316775703127,-0.041963744482803655,0.102441697038211,0.18596718311880603,-0.23497087014146703,-0.20866290545945168,0.03921589441071136,-0.23497087014146703,-0.2120136472993941,0.5134690750191129,0.6123880586940464,5.0392467862238055,0.1966186898673242,-0.5799657103880538,0.33281942336561376,0.33281942336561376,6.794821226295065,0.2781787043454467,6.800513134231951,78.07847664887375,8.657774647612909,0.35444766738933337,8.665027120428796,0.040916962447805794,-0.025536567418597205,-0.23497087014146703
2.1,39.5490067068658,-119.869973694647,1495.3016773235,-4.73537986908076e-05,-0.0001571080525802,-0.201004366279815,-7.661873278663321,-2.49948085955457,-0.060383996871746407,-2.81941427446505,36.5369846711191,-14.4552252715674,-1495.3879838628302,-0.0253824672922449,-0.0035210643544980004,0.9870993899992879,-0.15804488349602402,-0.0010741996216141,-0.0512455905648599,-2.8240389083122994,0.0067560947421533,-0.021896848002911803,-0.024185996721466395,-0.772001414421934,-0.101405168632301,9.69604082218054,-0.0254064212559239,-0.0035814036759938,0.9870975101782611,-0.158053772849979,-0.0009705648281646,-0.0513122360406079,-2.82402253955572,0.0,-0.42515462636947604,0.0,0.0,-7.52577312021437,-2.42550894598095,-0.0492241117944703,-0.014508091857108002,0.0059983603542682,0.018652047521578903,0.145984513581761,-0.0654638364742081,-0.0720884256862391,0.166491796130907,5.69790550186508,31.089875003584503,0.74825099603897,-6.75410913881138,0.7482509960389702,6.88158564596729,6.83039228851771,-6.397432647527101,89.35503036311232,45.301323691767294,-0.20903229454411326,-6.938812889047946,6.941960732342144,-0.030115972083468195,-5.172411394266,-16.11835504764154,0.06607347848989775,-2.42550894598095,-7.52577312021437,-0.0492241117944703,4.394818866350617,-0.018652047521578903,4.394835235107196,7.906848946989826,0.045764980723649096,0.005787952948254303,7.906981390137121,-0.7482509960389702,-6.397432647527101,6.83039228851771,6.785864060474081,-6.397432647527101,6.83039228851771,7.462725693924538,-0.3310315198310304,7.470064032515593,-0.04432893199623613,-0.0654638364742081,0.145984513581761,-0.0720884256862391,-0.11824316774338718,-0.10777543956595317,-0.0720884256862391,-0.11909677833866883,0.039703482739247176,0.582426876735223,5.098386368465613,0.21927400858133284,-0.5395738836380243,0.35321327256879775,0.35321327256879775,6.7553212926766175,0.25989686913958915,6.7603189384731435,78.07212093344386,8.606744256644028,0.33112649848525916,8.613111601347915,0.038453944909296184,-0.02611594279406592,-0.0720884256862391
2.2,39.5490045261529,-119.869982310176,1495.2971797431203,-4.962965659305871e-05,-0.0001662904269026,-0.20761137708817404,-7.68071833205737,-2.48521219261425,-0.013025149904584902,-2.8099804273762006,36.3014405546071,-15.2009130590699,-1495.3835342965203,-0.023535879853741302,-0.0017719429931251,0.9871325729108029,-0.158153814905405,-0.0039559808200037,-0.04703769789775691,-2.8237678177794,0.0397831789273198,-0.0669195954220133,-0.018407351692101503,-0.6842367829962671,-0.111270441598129,9.66794794528344,-0.0235754907627079,-0.0018190642424874997,0.9871337379925471,-0.158139374515343,-0.0038694544159681,-0.0471372003083522,-2.82380051551129,0.0,-0.421924083648835,0.0,0.0,-7.515598541372771,-2.4326075322840603,-0.0553477953993132,0.030670908082505,-0.022333691174320398,-0.0428033067231185,0.12153351890766,-0.0705764419776913,-0.0234406854394247,-0.5596064883584478,5.70173514113959,31.2628839016485,0.90258053708579,-4.30929721480899,0.90258053708579,6.711954739959099,6.69886161562107,-6.41615486435052,93.75959008006292,122.43962722047098,-0.6836399310373718,-7.366256856863556,7.397912113332933,-0.0925418791626349,-5.407955510778002,-16.86404283514404,0.061575898110277194,-2.4326075322840603,-7.515598541372771,-0.0553477953993132,4.3945968423061865,0.0428033067231185,4.3945641445742964,7.899391573050167,0.037598096144296544,0.0047595833027163584,7.8994810488543905,-0.90258053708579,-6.41615486435052,6.69886161562107,6.639727859217589,-6.41615486435052,6.69886161562107,7.496192201063661,-0.3517390959379795,7.504439879624522,-0.0468879778752409,-0.0705764419776913,0.12153351890766,-0.0234406854394247,-0.09339502491062847,-0.105018092261534,-0.0234406854394247,-0.09178570206915884,-0.44313817268881783,0.560493695512112,5.162505886380416,0.2438544398309203,-0.5046664194134302,0.3732728184958224,0.3732728184958224,6.716935344185414,0.2414546037939227,6.721273744139611,78.06762335306423,8.557344916276843,0.30761206121720386,8.562872017981784,0.03593166670547226,-0.026662043009187113,-0.0234406854394247
2.3000000000000003,39.5490021314513,-119.869991288629,1495.2942133812203,-5.1852054407157806e-05,-0.00017528027987390003,-0.21973680992986305,-7.649419027768299,-2.45398298572784,-0.06361262169238614,-2.80998009571087,36.06468030378359,-15.952149004516901,-1495.38067917641,-0.02168129718382769,0.001038538680613307,0.9871369543117519,-0.15839734124930002,-0.00892732271371591,-0.042488475229819585,-2.82319209030494,0.03804870503351939,-0.03753565795304076,-0.016682798929789498,-0.6960956452659125,-0.007905272621103996,9.813658531355308,-0.021461939251693894,0.001265923955449607,0.9871347092159621,-0.158438773835901,-0.009308699196005112,-0.04198299597848968,-2.8231045580040006,1.2653691867244386e-241,-0.419194966457848,0.0,0.0,-7.500963514645241,-2.4308944870556997,-0.054758539348653795,0.03523145146363708,-0.0439562203053732,-0.02996850810173485,0.16734079889969927,-0.018273513639045353,0.046090555982714554,-0.5419836894221373,10.978401175405708,31.0579389659165,0.8165836248104278,-4.918731684201317,0.8165836248104278,6.958178651518417,6.927537492707628,-6.407283804635349,94.01898462683168,177.617020525521,-0.43336385768930713,-7.3236506397236605,7.3364611990983875,-0.05910428224451954,-5.6447157616015105,-17.61527878059104,0.05860953621026965,-2.4308944870556997,-7.500963514645241,-0.054758539348653795,4.393900884798898,0.02996850810173485,4.393988417099837,7.8849280554912,0.040139942260259076,0.005090673654284448,7.885030225385118,-0.8165836248104278,-6.407283804635349,6.927537492707628,6.874262364469887,-6.407283804635349,6.927537492707628,7.5310953802378116,-0.3741587418409279,7.540384100981547,-0.0496410328728973,-0.018273513639045353,0.16734079889969927,0.046090555982714554,-0.15320321351776683,-0.06975413711698769,0.046090555982714554,-0.15200027933293708,-0.30605366742957213,0.5448311313837937,5.2578553737402585,0.28266757670188575,-0.4657681856958762,0.39299797152168153,0.39299797152168153,6.679672113855179,0.2228567664396304,6.683388712843391,78.06465699116423,8.50954837874123,0.28390771331638825,8.514283128943857,0.033351058131068284,-0.027174862900771948,0.046090555982714554
2.4000000000000004,39.548999927978,-119.86999994223201,1495.29246695371,-5.4022655757241306e-05,-0.00018404273356690002,-0.229882828079477,-7.60938849949413,-2.43232984506274,-0.11871883122878607,-2.80998009571087,35.8327067144852,-16.688219918269002,-1495.3789018963703,-0.020187313199489892,0.0023403620933617037,0.987125046334359,-0.15865361351060503,-0.01103489075396511,-0.039122115894311,-2.82265674359802,-0.007784685319621215,-0.004216810390682832,-0.037153152134434035,-0.6289685171814082,0.05871446947191001,9.798916658680854,-0.020212759834729793,0.002371347809074102,0.9871199889271239,-0.158682694885666,-0.011108380120801902,-0.03916241806471099,-2.82259620271369,-9.178144501041261e-239,-0.42007254382696907,0.0,0.0,-7.48031559434943,-2.42366010966832,-0.05548523721716738,0.020678608372708907,-0.03182084776582739,0.022061069937561115,0.2227435097401989,0.058001808408989816,-0.01598355188940371,0.1258076843474663,10.343179616639668,31.1027144636611,0.8500666260084957,-4.278147844989437,0.8500666260084957,6.736688777606501,6.7139072545671,-6.41021295052158,92.2,179.00173905665002,-0.1098269131396871,-6.890531106516555,6.891406306460391,-0.0159374673013044,-5.876689350899902,-18.351349694343142,0.0568631086998721,-2.42366010966832,-7.48031559434943,-0.05548523721716738,4.393392529508587,-0.022061069937561115,4.393453070392916,7.863031585158571,0.04454221664239055,0.00566470320290845,7.86315774471457,-0.8500666260084957,-6.41021295052158,6.7139072545671,6.659812175077896,-6.41021295052158,6.7139072545671,7.5673544235070365,-0.3983149523725428,7.577830017376679,-0.05258742893020872,0.058001808408989816,0.2227435097401989,-0.01598355188940371,-0.2296964058765356,-0.014779784758144274,-0.01598355188940371,-0.23067905483305737,0.15868710496329097,0.5324917427249265,5.375500212338479,0.32778686310480254,-0.41964655181014265,0.4123886495806434,0.4123886495806434,6.643535052030092,0.20410915385354966,6.646669732598371,78.06291056365383,8.46332233465708,0.2600184309991476,8.467315662284278,0.03071331286450812,-0.027654396371058022,-0.01598355188940371
2.5000000000000004,39.5489975154224,-119.870009249611,1495.2909042402598,-5.612906777683412e-05,-0.00019251786603100002,-0.23297454133446902,-7.59686512689091,-2.4485807845059,-0.126137721231927,-2.8099800957108703,35.5819656870479,-17.476551491389806,-1495.37719885063,-0.018965697550925198,0.0013552631752497975,0.9871339509005801,-0.158762170476073,-0.008697710753730294,-0.03701814686337909,-2.8224999860123,-0.029974786079669035,-0.04499249941242881,-0.018803606915241376,-0.708193574088142,-0.0336068110271071,9.805844777768073,-0.018966995938630396,0.0013653497196837977,0.98713297297838,-0.15876852810177403,-0.008724453728708293,-0.03702079177494459,-2.82248705396445,6.649535697068116e-236,-0.421443208266919,0.0,0.0,-7.460223033869559,-2.41909631568683,-0.05234673007830509,-0.031489501458532,-0.03861638310935084,0.008003199128418976,0.2050111775571648,0.011482843878424168,0.002421025719679573,0.7997195017508175,8.990851445622688,31.1203815212339,0.39393821658737294,-1.1013608237417543,0.393938216587373,6.882480527078598,6.789966390777621,-6.3391922388418,93.93487177481879,176.731612888645,0.3068926052033179,-7.034692527555707,7.041383530839418,0.04359794463929606,-6.127430378337202,-19.139681267463946,0.05530039524978747,-2.41909631568683,-7.460223033869559,-0.05234673007830509,4.393283380759346,-0.008003199128418976,4.3932963128071965,7.842516719407313,0.04343046700505493,0.005537766076811784,7.842636973598071,-0.393938216587373,-6.3391922388418,6.789966390777621,6.779319871047413,-6.3391922388418,6.789966390777621,7.604881227871345,-0.42422645000741815,7.6167044429277855,-0.05572568751389539,0.011482843878424168,0.2050111775571648,0.002421025719679573,-0.19826384093950183,-0.053412433036022035,0.002421025719679573,-0.19861142361518352,0.009352789937349816,0.5245699370600188,5.493940804386794,0.36949750843777507,-0.37235092335782966,0.4314447742079611,0.4314447742079611,6.608522225259344,0.1852186213991018,6.6111172988731415,78.06134785020375,8.418550314912359,0.23594870840369303,8.421856161067366,0.028019902168115805,-0.02810063635431871,0.002421025719679573
2.6,39.5489955048388,-119.870017105699,1495.28973089498,-5.82269725525633e-05,-0.0002008707814805,-0.234365020791286,-7.586617313198551,-2.4671632029304,-0.129246484763988,-2.80998009571087,35.3652183263361,-18.158656803882,-1495.37624842058,-0.0182498062574229,0.0013424319371324,0.987119624885607,-0.15893391365842402,-0.0084567700510508,-0.0356185785830245,-2.8221666496567606,-0.003510120128609401,-0.0234263420975099,-0.0157332667586766,-0.7004653052809982,-0.07115049417692491,9.868928483934189,-0.018253819823929,0.0013363622595396,0.9871194698303088,-0.158934844044116,-0.0084464794654087,-0.0356201875922791,-2.8221647761412205,0.0,-0.420435588914833,0.0,0.0,-7.438516150229761,-2.41677113136105,-0.0486455238170731,-0.004864840250591299,-0.012066695836439002,0.0275595806357452,0.237947406764636,-0.017371446818015005,-0.030494173262335215,0.6496829665886101,8.59082774371063,31.0874411809773,0.566902357717763,-4.690236191618289,0.566902357717763,6.4807069395825705,6.46070695865606,-6.379855252396859,94.7306701670821,176.60085913842101,-0.1054980433723837,-6.84294238894238,6.843755575379635,-0.015415837239271002,-6.344177739049002,-19.82178657995614,0.05412704997002038,-2.41677113136105,-7.438516150229761,-0.0486455238170731,4.392961102936117,-0.0275595806357452,4.392962976451657,7.821163307103777,0.04134902928313222,0.005286763928262223,7.821272608636599,-0.566902357717763,-6.379855252396859,6.46070695865606,6.430542554135286,-6.379855252396859,6.46070695865606,7.643580448340303,-0.4519058714400427,7.6569276467060945,-0.05905353373109244,-0.017371446818015005,0.237947406764636,-0.030494173262335215,-0.2204558513996983,-0.09121377710741073,-0.030494173262335215,-0.2215954133064366,0.12433420372004743,0.5242480985316375,5.618181937435043,0.4125385382182043,-0.3234934671656054,0.4501662668669742,0.4501662668669742,6.574626232812506,0.16619320476118934,6.576726410798548,78.06017450492398,8.375244556085951,0.2117091807421569,8.377919917942512,0.025272588072996708,-0.028513574751119108,-0.030494173262335215
2.7000000000000006,39.54899332817009,-119.87002668683301,1495.28784904051,-6.035742069163831e-05,-0.00020913411023690005,-0.232306734942879,-7.569750422681551,-2.461131158408,-0.06620598689130208,-2.81682630776347,35.100673939547,-18.992794667914808,-1495.3736077657302,-0.01924786886535441,0.0010005217932140954,0.98709165127683,-0.15899183908846604,-0.008103115774306092,-0.037681476309755414,-2.82204119533137,-0.05568209553707991,0.03560902252097885,-0.05824224034380386,-0.711285737752463,-0.036848128530034954,9.740457351124046,-0.01924718332483071,0.001003841380458496,0.9870915469704651,-0.15899196175731703,-0.008107781638509596,-0.03768717025855101,-2.82204095450624,3.4862717715444484e-230,-0.418956732805039,0.0,0.0,-7.407767131700631,-2.4098538712023903,-0.03912851868407136,-0.06402465004610089,0.023333797158618136,-0.022344523316552366,0.28051180247304164,0.033428095647694285,0.06967435668614863,1.1298455852489457,8.81025272200419,31.0448325465733,0.5676441307162253,-4.999999999999974,0.5676441307162253,6.7497437635253625,6.728087795686493,-6.3675615246238895,94.09783132870604,176.14839827374405,0.22389716281318686,-6.200979549500055,6.205020331379558,0.03609106255923798,-6.608722125838099,-20.655924443988948,0.052245195500063346,-2.4098538712023903,-7.407767131700631,-0.03912851868407136,4.392837281301137,0.022344523316552366,4.392837522126267,7.789792741549843,0.039225014349400844,0.005035394923953835,7.7898914984775836,-0.5676441307162253,-6.3675615246238895,6.728087795686493,6.70415220851608,-6.3675615246238895,6.728087795686493,7.683349576219269,-0.48135946653795036,7.698413320055928,-0.0625679158202603,0.033428095647694285,0.28051180247304164,0.06967435668614863,-0.276812404171677,-0.05638441098390817,0.06967435668614863,-0.2759359399239547,-0.23044361652857903,0.5313552005827596,5.7619450600865045,0.4607924298749806,-0.26459154513373223,0.4685530423472221,0.4685530423472221,6.541834141496871,0.1470422427278742,6.543486483213711,78.05829265045402,8.333270666676528,0.1873087549428679,8.335375490868405,0.022473435414763526,-0.028893201963444685,0.06967435668614863
2.8000000000000003,39.5489913567724,-119.87003443935602,1495.2879411243403,-6.255910344212792e-05,-0.00021758588255380005,-0.229361235654931,-7.551257442429521,-2.4517290991464797,0.027734674010090866,-2.82702801548549,34.9159474430681,-19.570242607482605,-1495.37414447578,-0.0203363125508206,0.0002384538104643993,0.9870671268656681,-0.15901236191855003,-0.006943061813255498,-0.04008039592340679,-2.8220064801093003,-0.020518431681567126,-0.003988253333246222,-0.004717226831673159,-0.7777129083466326,-0.07842139488834542,9.805710944320719,-0.0203619461411898,0.00024454672855049825,0.9870698380393021,-0.15899491449994002,-0.006966206448085797,-0.04012974954862421,-2.82204129219004,-2.514624479650721e-227,-0.42131658964476404,0.0,0.0,-7.38255888963704,-2.41010545418845,-0.03287648927447357,-0.013071870700923981,-0.013640440422405305,0.011247230075340071,0.2816889101794501,-0.05056107486009154,0.04356316026932057,-0.06519896153997151,6.670582775902918,31.357747459348097,0.1409127661143001,-5.000000000000023,0.1409127661143001,7.032867837893767,7.001843480081317,-6.30086959517936,94.20023463368949,178.07542030725483,0.08780650274214868,-6.195920892474832,6.196543043321005,0.014170714367980376,-6.793448622317001,-21.233372383556745,0.05233727933023147,-2.41010545418845,-7.38255888963704,-0.03287648927447357,4.392837618984936,-0.011247230075340071,4.3928028069041964,7.765939675899517,0.031064602967097343,0.0040000873787628954,7.766001806545489,-0.1409127661143001,-6.30086959517936,7.001843480081317,7.00074865120759,-6.30086959517936,7.001843480081317,7.724079043017661,-0.5125868112861985,7.741068550393361,-0.06626502955666529,-0.05056107486009154,0.2816889101794501,0.04356316026932057,-0.2515455276431573,-0.13649143537899977,0.04356316026932057,-0.25189491837992734,-0.049146125092946,0.5452606466680667,5.886786546229535,0.5029797222290012,-0.21052451598641675,0.4866050034275466,0.4866050034275466,6.510127439413622,0.1277765002388832,6.511381275230276,78.05838473428419,8.292891084090675,0.16276741268874267,8.29448827615206,0.01962482260593604,-0.029239506785488735,0.04356316026932057
2.9000000000000004,39.5489889174453,-119.870043674703,1495.28652205075,-6.500696787451841e-05,-0.00022713584781950002,-0.23055803754924503,-7.53911162781718,-2.45659675685895,-0.004843560033436817,-2.81994207408005,34.6382234208873,-20.437190062330004,-1495.3722771174903,-0.021220770101313905,0.0010774628753802058,0.9871066601190039,-0.158649902955177,-0.008868301195834214,-0.04156438817445201,-2.8226897678123795,0.0052018005531032805,-0.002109492422907828,-0.03468142653518085,-0.7869499748516899,-0.03478130436925579,9.821626955426751,-0.021377156535701308,0.0012066881720630065,0.987115950547775,-0.158569243900497,-0.009169914788208515,-0.04183281220141271,-2.8228445214716698,1.8235891833018526e-224,-0.42316885346197214,0.0,0.0,-7.35068259078073,-2.41046283540566,-0.01684658849366906,0.06515129023156564,0.04004002443264354,-0.05254111742884368,0.320307490257709,-0.04301325570516319,0.1257019130613194,-0.5760783782483399,11.356189045562768,31.549996827466803,0.12000218788341391,1.9998904717204162,0.12000218788341391,7.360500626051372,7.350458652984842,-6.300638982025351,95.99992113963877,175.21929680808353,-0.47060347861311314,-6.254708445838351,6.272387533987704,-0.07509837621038858,-7.0711726444978,-22.100319838404143,0.050918205739890254,-2.41046283540566,-7.35068259078073,-0.01684658849366906,4.393640848266566,0.05254111742884368,4.393486094607276,7.73580347719139,0.014498053400539224,0.001874147458479568,7.735817062940333,-0.12000218788341391,-6.300638982025351,7.350458652984842,7.349339093482732,-6.300638982025351,7.350458652984842,7.765652350292212,-0.5455805363316294,7.7847938024859,-0.07014034706053933,-0.04301325570516319,0.320307490257709,0.1257019130613194,-0.29069370396369104,-0.14122393195708743,0.1257019130613194,-0.28993196003748367,-0.5476716908586575,0.5608734098722847,6.017680884424698,0.5412205542847319,-0.1471709669788559,0.5043220325145183,0.5043220325145183,6.479482009240457,0.10840829089197274,6.4803888359885375,78.05696566069385,8.253703514352974,0.138092812086527,8.254858649764548,0.016729451054178553,-0.029552476215314157,0.1257019130613194
3.0,39.548986659909005,-119.870052450083,1495.2872314453102,-6.75244562454205e-05,-0.0002369443914337,-0.23344620578342104,-7.526556477950261,-2.46355759375707,-0.057793558606900705,-2.80998458004973,34.3948568873757,-21.189857543277302,-1495.37255859375,-0.0222390559778107,0.0030414876071256,0.987104565952885,-0.158499561943643,-0.0130497511827269,-0.0428679844858297,-2.82289108921979,0.0688359683731899,-0.026723584491659,-0.0280971880200546,-0.850234372851002,0.154680465057309,10.0506582347898,-0.0221836740598125,0.0030356533222206,0.987104629144764,-0.15850322422043303,-0.0130376044092505,-0.04284636808871781,-2.8228840860889606,0.0,-0.426864678427712,0.0,0.0,-7.32182171034001,-2.41209651095991,-0.0099521983503299,0.03795710097971291,-0.0693076156729072,-0.0068088228999744985,0.29466403323605905,-0.06609907293056538,0.0745854648974334,-1.09132413775504,6.748592957303909,31.474781346334602,-0.10298588527092001,-2.9276880721542002,-0.10298588527091998,7.57879473180483,7.55927682993754,-6.2653113209165205,94.49581841229632,176.509641590379,-0.5885529194995558,-6.271814420961068,6.299369069202617,-0.0935669215602006,-7.314539178009397,-22.852987319351442,0.05162760030020763,-2.41209651095991,-7.32182171034001,-0.0099521983503299,4.393680412883857,0.0068088228999744985,4.393687416014687,7.708908469789845,0.003597303665952012,0.00046664238120596786,7.708909309117035,0.10298588527091998,-6.2653113209165205,7.55927682993754,7.558069345529171,-6.2653113209165205,7.55927682993754,7.807946225642809,-0.5803260727192392,7.829482908417868,-0.07418864945675258,-0.06609907293056538,0.29466403323605905,0.0745854648974334,-0.2591134966405878,-0.1551005344410831,0.0745854648974334,-0.2590890032370089,-0.20758912696399556,0.5922625993370446,6.132485349786434,0.5855500344544928,-0.08891649860298645,0.521703973291369,0.521703973291369,6.449868121574022,0.08895159807311959,6.450481468270145,78.05767505525417,8.216055375629674,0.11330948815448846,8.216836676940774,0.013790353162174807,-0.029832094583339623,0.0745854648974334
3.1,39.548984266007004,-119.870061399893,1495.28952713952,-6.98355785266817e-05,-0.00024575518815129994,-0.23648585241338502,-7.501064907342191,-2.43619606365975,-0.0652353384211789,-2.8187679662094705,34.1454922295409,-21.950682357345997,-1495.37431209763,-0.0201035700077074,0.0038668477444447,0.987200145453642,-0.158164434357844,-0.0139952068754922,-0.0384829439416757,-2.82359294864343,0.029797417915601702,-0.0752565404890695,-0.0269562371210428,-0.8720089783097351,0.14614465471319904,10.035080011315802,-0.020144794684115,0.0038320275161782004,0.987197256298972,-0.15817866422560503,-0.0139562380202986,-0.03857347781906921,-2.8235639888632305,-2.2131618651272261e-221,-0.4388578968484941,0.0,0.0,-7.29578688953461,-2.4105911440988597,0.019167688276160704,-0.038930733200822604,-0.08586588452265091,0.02458513048801241,0.298414935192563,-0.0172483698006352,0.34614137596660205,0.533730680117916,7.692259793727691,32.0981028851133,-0.418383446614797,-1.2468324983583301e-18,-0.41838344661479704,7.531688691721561,7.531688691721561,-6.22701477681719,95.9888918238111,175.55488717385302,-0.17906338381313644,-7.045908165833009,7.048183140127312,-0.025408342610117804,-7.563903835844201,-23.613812133420137,0.053923294510013875,-2.4105911440988597,-7.29578688953461,0.019167688276160704,4.394360315658127,-0.02458513048801241,4.394389275438327,7.6837091429987145,-0.008355076953733942,-0.001087375056144012,7.683713685550297,0.41838344661479704,-6.22701477681719,7.531688691721561,7.519810092671812,-6.22701477681719,7.531688691721561,7.850830804980951,-0.6168014163883687,7.875023067629488,-0.07840406280651607,-0.0172483698006352,0.298414935192563,0.34614137596660205,-0.27805705352729054,-0.10969619314489693,0.34614137596660205,-0.27785164287014563,0.07920879876766046,0.6309806636301242,6.233215579700423,0.6301930564868817,-0.031516811876105603,0.5387505994347315,0.5387505994347315,6.421250448805989,0.0694221938555264,6.421625710619612,78.05997074946397,8.17984180133907,0.08843488784115115,8.180319836309671,0.010810898874381102,-0.030078343197087857,0.34614137596660205
3.2,39.5489822355641,-119.870069204429,1495.2931938575302,-7.20922456309214e-05,-0.00025429506320420004,-0.23827996886824,-7.46705669593951,-2.41009672457944,-0.0679378228745813,-2.8274322808223404,33.9276610327624,-22.6160670752632,-1495.3780800962102,-0.0202794440274178,0.005125543755240201,0.987318935985566,-0.15737416049621503,-0.0165155923832358,-0.0383836076344841,-2.82514686053976,0.0646867207484173,0.0011922755769720999,0.02395653858105301,-0.770309796386488,-0.033516969597353806,9.72594878663751,-0.020194151225546603,0.0050416575277628,0.9873230966406309,-0.15735246775380402,-0.016322237126239002,-0.0382999247665307,-2.82519268616666,0.0,-0.446028010673132,0.0,0.0,-7.264514338357351,-2.4069882286780504,0.0273396667797332,0.0666418438679158,0.07000952748203451,-0.08036651458013001,0.368897706477462,0.0327953161930393,-0.0324907813231692,0.356812601844117,7.866895856947769,31.86277696193971,-0.12908517743149703,7.940933880509066e-22,-0.12908517743149703,8.08337958035974,8.08316600858609,-6.26596113710346,93.1,169.180245837288,-0.453085569029948,-6.045734096366253,6.062688124654663,-0.0748031858165784,-7.781735032622699,-24.27919685133734,0.057590012520222444,-2.4069882286780504,-7.264514338357351,0.0273396667797332,4.395989012961556,0.08036651458013001,4.395943187334657,7.652844071423036,-0.02717579216001953,-0.00355105600968663,7.652892322853774,0.12908517743149703,-6.26596113710346,8.08316600858609,8.081967013575145,-6.26596113710346,8.08316600858609,7.894169841092241,-0.6549769129634226,7.92129485857744,-0.08278009671399615,0.0327953161930393,0.368897706477462,-0.0324907813231692,-0.36079042923225635,-0.08361409440361939,-0.0324907813231692,-0.3629744529291111,-0.6986464990491004,0.6725863322938124,6.333770169508708,0.6717259993014105,0.03400817917742813,0.5554615234934805,0.5554615234934805,6.393588099941916,0.04983775479568107,6.3937823386100625,78.06363746747418,8.144986127141117,0.06348982997862666,8.145233573681725,0.007794800767560069,-0.030291199751277136,-0.0324907813231692
3.3000000000000003,39.5489802068546,-119.87007800033201,1495.2965071335298,-7.43635064801288e-05,-0.00026289489187800006,-0.23306468040446096,-7.42511320011858,-2.43524595853026,-0.06644175422316088,-2.81871812991462,33.68669446632081,-23.361906402370103,-1495.3813588625803,-0.02465369048911855,0.005101012089669093,0.9874118470720099,-0.15615438792487496,-0.0177963116950187,-0.04710958728849829,-2.82748093519926,-0.05193033353069958,0.11411960923731637,-0.022135358645093747,-0.8385876256359667,0.01365277428473168,9.84716643845178,-0.02454028425704534,0.005147331436670094,0.987410851960894,-0.15617616824480499,-0.0178520260998116,-0.046871646334336575,-2.82743769244387,5.012643778317316e-213,-0.43925122780222897,0.0,0.0,-7.233925528848631,-2.3940560314080197,0.031076156867597952,0.015016540528768106,0.14168455178486933,-0.04822572448361022,0.31266927147144735,0.12610887990383055,0.10610525919270475,1.0287240106904885,7.598750709621885,31.9723756283665,0.7270317098501654,-4.6994198550668885e-22,0.7270317098501654,7.916374372141536,7.9163743721415365,-6.381520649157661,93.67885525990832,-67.01472894100475,-0.05372596931385366,-4.8080745083436405,4.808374669008505,-0.01117364826581114,-8.022701599064291,-25.025036178444243,0.06090328851973936,-2.3940560314080197,-7.233925528848631,0.031076156867597952,4.398234019238767,0.04822572448361022,4.398277261994156,7.619675833201293,-0.04150946129789457,-0.005447613728889811,7.6197888972365275,-0.7270317098501654,-6.381520649157661,7.9163743721415365,7.878130170259797,-6.381520649157661,7.9163743721415365,7.937820938414972,-0.6948150643327043,7.9681722636977925,-0.08730968500326837,0.12610887990383055,0.31266927147144735,0.10610525919270475,-0.3363358347475218,0.02331800115301695,0.10610525919270475,-0.3383376585915372,-0.34414638623337174,0.7266529563196583,6.4222057565416515,0.7196423616825396,0.10069453907772863,0.5718355264994898,0.5718355264994898,6.36683467670231,0.030217973742421685,6.366906385867166,78.0669507434737,8.111248381757205,0.03849722869593208,8.111339738118243,0.00474611771523695,-0.030470636380009512,0.10610525919270475
3.4,39.5489779266007,-119.87008684285803,1495.29870443969,-7.66271923268785e-05,-0.00027146218092290007,-0.22417787678220702,-7.38491794907522,-2.45960152463852,-0.06219478013409379,-2.80998009571087,33.44299681797921,-24.116078554597202,-1495.38352001907,-0.0291351806046489,0.0039726240015703,0.987373320752707,-0.155650960598854,-0.016944488551702802,-0.056327100479070705,-2.82840705073736,-0.0119978045842532,0.09968088844919862,-0.06335518938092241,-0.842633681871681,0.06476592872210618,9.72219073477088,-0.0291666144010457,0.0039339702128523,0.9873739720200561,-0.155646668959701,-0.0168752508005507,-0.05640188901027969,-2.82841584708902,0.0,-0.44058952511429506,0.0,0.0,-7.21616287600898,-2.38009485666685,0.0291090767697923,-0.06738022411418881,0.09996878619287439,-0.10185791928364998,0.19409455179273702,0.0969172064367724,-0.144798635164008,0.13690310236954203,7.25053278815027,31.3643469447742,0.9475551733472,1.7165613297609217e-27,0.9475551733472,8.16170788717293,8.16170788717293,-6.404884242829121,86.6386500795483,7.977746883410731,0.0695665007670129,-5.031953529079687,5.032434382766106,0.0138240682887199,-8.266399247405893,-25.77920833067134,0.06310059468000873,-2.38009485666685,-7.21616287600898,0.0291090767697923,4.3992121738839165,0.10185791928364998,4.399203377532256,7.59843172085998,-0.0411529251818461,-0.005415923222569532,7.598543161673965,-0.9475551733472,-6.404884242829121,8.16170788717293,8.101342424922052,-6.404884242829121,8.16170788717293,7.981635813857594,-0.7362703584601484,8.015522709455773,-0.09198522786308377,0.0969172064367724,0.19409455179273702,-0.144798635164008,-0.21451221807495321,0.0324059907377501,-0.144798635164008,-0.2187039694064118,-0.7415544541679314,0.7937465734965654,6.473833634950314,0.7793651446868315,0.15041141640451608,0.5874535784774724,0.5874535784774724,6.3409383511707125,0.010584666767462291,6.340947185438319,78.06914804963397,8.078484239797266,0.013485080429564944,8.078495494833616,0.0016692571903650052,-0.030616618322459415,-0.144798635164008
3.5000000000000004,39.5489757967742,-119.87009524076402,1495.29895448294,-7.891022485768702e-05,-0.00028008483135480005,-0.21400320664037897,-7.35226801915728,-2.44945309688985,0.027285683775597168,-2.8099800957108703,33.2285518168743,-24.780351486120704,-1495.38367724064,-0.03177646382978122,0.0015008783507270923,0.9872152443186,-0.156187254886521,-0.012912178437876091,-0.06231022825254733,-2.82737001325057,-0.004525225355706809,0.06877425428383185,0.009737166120694172,-0.9211915674648058,-0.018549544157421848,9.69949616262915,-0.03191707556726402,0.001417312896801092,0.987212538387001,-0.15617472172697003,-0.012793114116087289,-0.06261607628590585,-2.8273971218515705,2.628068981246429e-207,-0.445335370290838,0.0,0.0,-7.20622366589321,-2.36840900828075,0.025217773774277644,-0.011457132127686825,0.080598619176501,-0.06501311638084499,0.1380308710904136,0.08031858082680302,-0.13729622872797295,0.89971144893883,12.135503626159384,31.256883852347695,0.930000007152557,-8.979209253678167e-28,0.8580848795165003,8.17806149774615,8.178061497746151,-6.388225009398321,94.72210122267042,176.4477924582639,1.2544491759158616,-5.2376222218425275,5.385752433383347,0.2350791382331097,-8.480844248510799,-26.443481262194844,0.06335063792994333,-2.36840900828075,-7.20622366589321,0.025217773774277644,4.398193448646467,0.06501311638084499,4.398166340045467,7.585405533589295,-0.02537014737255916,-0.003344587532080649,7.585447959968139,-0.8580848795165003,-6.388225009398321,8.178061497746151,8.13298730125373,-6.388225009398321,8.178061497746151,8.025460583378607,-0.7792891238188279,8.063207123339074,-0.0967986348676273,0.08031858082680302,0.1380308710904136,-0.13729622872797295,-0.15609618913377069,0.033727963738182515,-0.13729622872797295,-0.15774558147750206,-0.4594228890129639,0.8729503249846825,6.497330378096502,0.8530107725812467,0.185512511036877,0.6017359973209527,0.6017359973209527,6.315841965174229,-0.009038125676485625,6.315848432061334,78.0693980928839,8.046536706060042,-0.011514792550357792,8.04654494503194,-0.0014310236951478338,-0.0307291015351105,-0.13729622872797295
3.6,39.5489736165493,-119.870103761495,1495.29821777344,-8.113464427486721e-05,-0.00028855398539099996,-0.20776391163591104,-7.334341222654841,-2.43252317275117,0.111347179663555,-2.80998011264186,32.99639616112301,-25.5024093190761,-1495.3833776592703,-0.0353616338633668,0.0007613637938739001,0.9869796895961791,-0.156913794372955,-0.012631620354370203,-0.0696195420176686,-2.82582531108694,6.310265559991788e-05,0.0954231412386526,0.0070947849678256,-0.9007718898323961,-0.0317358405573879,9.69199279620413,-0.0353002941428368,0.0007653546868509001,0.98698314306062,-0.156900624218961,-0.012622057096794898,-0.0694967616793426,-2.8258529054684605,0.0,-0.443855613280651,0.0,0.0,-7.19635416556354,-2.36403239013312,0.013354036650388,0.06719714173398551,0.0753979015414074,0.0031238072544933007,0.139760778051213,0.021247053980985,-0.100118107562366,0.171154846277894,7.79218295852999,31.687680184271798,0.9211032990750051,4.044452883213195e-33,0.921103299075005,8.032513800204311,8.03251380020431,-6.40085792387442,88.57025388963082,47.666891647821295,-0.2552545206040533,-5.207238967778011,5.213491396160025,-0.04897996191011671,-8.712999904262091,-27.16553909515024,0.06261392842998248,-2.36403239013312,-7.19635416556354,0.013354036650388,4.396649232263357,-0.0031238072544933007,4.396621637881836,7.574695019509889,-0.012561020432715786,-0.001658285764174239,7.57470543439296,-0.921103299075005,-6.40085792387442,8.03251380020431,7.9769654563964245,-6.40085792387442,8.03251380020431,8.069136073953814,-0.8238094097726825,8.111080009691237,-0.10174136829985234,0.021247053980985,0.139760778051213,-0.100118107562366,-0.1394496036921503,-0.02320173300539287,-0.100118107562366,-0.13941036548539873,0.00046015424712639655,0.9500504752518744,6.5148077498642785,0.9246795988636632,0.21809068061622242,0.6145202819618707,0.6145202819618707,6.291483151498033,-0.028624044260649576,6.291548265847879,78.06866138338394,8.015427344252037,-0.03646738639286697,8.015510300739036,-0.00454961828149291,-0.030808026015794833,-0.100118107562366
3.7,39.5489714179917,-119.870111842131,1495.29760742188,-8.317218266295201e-05,-0.0002964808088069,-0.20901384693660502,-7.33292711089997,-2.4195236597340695,0.0714401463163371,-2.81794095990885,32.7566094339084,-26.256402438265905,-1495.38293457031,-0.0367775748078876,0.0005203200284152,0.986765546775895,-0.157924883282318,-0.012672877751576,-0.0724806666364821,-2.8237392587988994,-0.014562273066948104,0.0172658207887709,0.028368912088936802,-0.9248096772399181,-0.051870888699644305,9.610287434989681,-0.03678081846469469,0.0005313225742354,0.9867710321189941,-0.157891033688508,-0.012697242575556902,-0.07248394251087521,-2.82380666939889,-3.1895023843512216e-204,-0.437521059131009,0.0,0.0,-7.19145003842198,-2.35295677998876,0.0012762621780292001,0.0023335567242413003,0.0198272341273858,0.0042711132504139986,0.0372169273115295,0.08890183625923861,-0.08838498434354342,0.16369537429846,8.729380199806672,31.5956365365805,1.08626267520568,0.0,1.08626267520568,8.28808116180664,8.28808116180664,-6.40754442797015,98.07474723474292,172.943094429526,0.014565479904613404,-5.505778083691672,5.505797350072411,0.0026454836544351004,-8.952786631476698,-27.919532214340045,0.06200357686998359,-2.35295677998876,-7.19145003842198,0.0012762621780292001,4.394602996193786,-0.0042711132504139986,4.394535585593796,7.566585557783643,0.011927294520129639,0.0015763100212438394,7.566594958342529,-1.08626267520568,-6.40754442797015,8.28808116180664,8.224075335378355,-6.40754442797015,8.28808116180664,8.112498160457564,-0.8697608941644195,8.158989546288502,-0.10680448622900889,0.08890183625923861,0.0372169273115295,-0.08838498434354342,-0.06313209727806157,0.07282152471659403,-0.08838498434354342,-0.06318304010372809,0.10513926855283495,1.0370123585686217,6.519793426089244,1.008119788902549,0.24308254369068932,0.6258052931238193,0.6258052931238193,6.267794476947426,-0.04814432382987514,6.267979377851342,78.06805103182394,7.985185250139931,-0.06133598444209229,7.985420814336575,-0.00768107141725465,-0.030853308486847395,-0.08838498434354342
3.8000000000000003,39.54896928468371,-119.870120192854,1495.29660933581,-8.521309465801972e-05,-0.00030448868218090004,-0.211295605821191,-7.331792858710581,-2.4041588768015,0.003874587770965353,-2.82725749425532,32.53210502799459,-26.963493233165803,-1495.3824265469,-0.036436590962702506,-0.0005083932019914962,0.986647990509623,-0.15873958549764797,-0.010589338573537409,-0.0721168499472928,-2.82216830689734,-0.057757326538385736,-0.008794875378616037,0.03302784702836263,-0.8664228293342282,-0.0310282212567866,9.632898483812701,-0.036380264269680385,-0.0005546377656122075,0.986644677386337,-0.158772410739341,-0.010485263921974283,-0.07202737883832058,-2.82210785670284,-9.961453846805735e-199,-0.44381959463591014,0.0,0.0,-7.190566878622971,-2.34506363964493,-0.015476102544897504,-0.02993913751584423,-0.02323958046445311,0.039151076839056144,0.03187580569972955,0.03630319938562804,-0.15898174882827631,-0.1496697363143824,7.905952117849435,31.563933749129003,0.821607314378008,-3.3053271928760395e-28,0.8216073143780083,8.006809263097445,8.006809263097445,-6.38086867898824,87.69845163047859,17.640224428714948,0.4232749395053619,-6.095139517482928,6.10981893446895,0.0693333560565499,-9.17729103739051,-28.626623009239943,0.061005490799971085,-2.34506363964493,-7.190566878622971,-0.015476102544897504,4.392904183497737,-0.039151076839056144,4.3929646336922366,7.563236849979711,0.03199782872953749,0.004230680389620022,7.563304536373928,-0.8216073143780083,-6.38086867898824,8.006809263097445,7.968638977807316,-6.38086867898824,8.006809263097445,8.15537812688693,-0.9170648192932142,8.20677770353816,-0.11197868482449119,0.03630319938562804,0.03187580569972955,-0.15898174882827631,-0.04166482271839844,0.02445468917169065,-0.15898174882827631,-0.04291757216967152,0.32056355623722727,1.1186381013041116,6.521524419375805,1.0870158044309095,0.2640981685030979,0.635590620267515,0.635590620267515,6.244703607179905,-0.0675677148639687,6.2450691379373575,78.06705294575393,7.95566571341299,-0.08608033083570091,7.956131394524086,-0.010819581284573344,-0.03086482789755878,-0.15898174882827631
3.9000000000000004,39.5489668821397,-119.87012959417999,1495.2930233608502,-8.75231406915031e-05,-0.00031352300282130006,-0.21336892573903,-7.32438256596577,-2.37116905464833,-0.05509084503576037,-2.81948047836592,32.2829330439519,-27.746250582595703,-1495.3789040768702,-0.0351023282321201,-0.0014571164908238005,0.986598942227172,-0.15933350793515202,-0.0083311471839467,-0.0697848398571374,-2.82107144542948,0.0032011571178899153,-0.0416982061611743,0.020624325491472167,-0.8287914132693488,-0.008733189806441145,9.69743430261893,-0.0348510154365792,-0.0016993484885444003,0.986619703475737,-0.15927004285560903,-0.0077515383243556,-0.06935247021885349,-2.8212253699627903,7.223981008694688e-196,-0.452498837450876,0.0,0.0,-7.18821430374734,-2.3470453389553505,-0.02301612815611872,-0.08255807349122782,-0.022072783726654818,-0.002608538703269366,0.06044422466210126,-0.04437013490789169,-0.01398188069058609,1.0643256374434267,9.618566245893115,31.691334229845296,0.7840643461256283,2.3829910224916325e-25,0.7840643461256281,7.74016901713814,7.7401690171381405,-6.386174478373581,95.33991037912277,174.78656974440705,0.21572498908585952,-6.082692346590197,6.086516528703679,0.03545052078814087,-9.4264630214332,-29.409380358669843,0.05741951584013805,-2.3470453389553505,-7.18821430374734,-0.02301612815611872,4.392021696757687,0.002608538703269366,4.391867772224376,7.561596859015623,0.036050540009088916,0.004767546795191399,7.56168279549664,-0.7840643461256281,-6.386174478373581,7.7401690171381405,7.69915619362568,-6.386174478373581,7.7401690171381405,8.197603051260444,-0.9656339573857282,8.254280388119303,-0.11725433942292586,-0.04437013490789169,0.06044422466210126,-0.01398188069058609,-0.04339598263241541,-0.061147378178579154,-0.01398188069058609,-0.04330194340352794,-0.08087209624384148,1.1865393836257028,6.528530901096774,1.1510066120270213,0.2882004301956205,0.6438759975079055,0.6438759975079055,6.222133493136303,-0.08686041419722228,6.222739745318221,78.0634669707941,7.926547582291828,-0.11065387891650891,7.927319903678399,-0.013959001768096951,-0.03084238732971772,-0.01398188069058609
4.0,39.5489648099982,-119.87013767160398,1495.29070783371,-8.989301640801682e-05,-0.0003227982884825,-0.215622479218014,-7.317069740313991,-2.34529045508148,-0.09056143155153239,-2.80998009571087,32.06177177670881,-28.4448122253252,-1495.37654364481,-0.0346964789713639,-0.0009278368685598999,0.986599865962835,-0.159421160278425,-0.0092538790675985,-0.06881325190665401,-2.82087028452953,-0.0023026107732331998,-0.0221741134465125,0.038088585954366094,-0.82808696970434,-0.0586064765198515,9.78943047262761,-0.0346864506781171,-0.0009641797844985999,0.986601149469335,-0.15941556718387598,-0.0091785349150379,-0.0688077696702471,-2.82088242356917,0.0,-0.440788847822133,0.0,0.0,-7.18684442722971,-2.35028617922044,-0.020607541842081196,-0.0041061619532503,0.0014274378701136011,0.013867669869095604,0.053103641968829496,-0.0541679189669663,0.025003574168034295,0.0262570921668982,5.6463995716293,31.7269727019861,0.5763905640349669,0.0,0.576390564034967,7.83585587948496,7.83585587948496,-6.353915881286401,93.87371831057101,177.888850810708,-0.18580926254190286,-5.875996509456674,5.878933581968193,-0.0316112113058607,-9.64762428867629,-30.10794200139934,0.05510398870001154,-2.35028617922044,-7.18684442722971,-0.020607541842081196,4.391678750364067,-0.013867669869095604,4.3916666113244265,7.561305666627959,0.03513632390097854,0.004646825898898307,7.561387302964805,-0.576390564034967,-6.353915881286401,7.83585587948496,7.816263384470224,-6.353915881286401,7.83585587948496,8.238996213426107,-1.01537260657803,8.301327612800183,-0.12262154390330691,-0.0541679189669663,0.053103641968829496,0.025003574168034295,-0.03332005059585376,-0.06814641930325616,0.025003574168034295,-0.033807309536126144,0.03671127146086224,1.2501333889772415,6.535402805592511,1.210580946312312,0.31197317618877163,0.6506612194340959,0.6506612194340959,6.2000025788054955,-0.10598600581685881,6.200908402050767,78.06115144365397,7.898120117875531,-0.13501449299665955,7.899274036878917,-0.01709284511672729,-0.030785654591609122,0.025003574168034295
4.100000000000001,39.54896271425851,-119.87014615087404,1495.28827272649,-9.210120110508075e-05,-0.0003314538092866002,-0.2178200217202071,-7.317035623653781,-2.3717547721571512,-0.0671386379108702,-2.80998009571087,31.8294722050194,-29.18060009393681,-1495.3740899012903,-0.034070429546044466,-0.00029016727867808265,0.9866964180477011,-0.15896324608142204,-0.010282813194662826,-0.06737756376622363,-2.8217781073935306,-0.008898500374166904,-0.024843364954011484,-0.06856641285181873,-0.9078148125307235,-0.03613385442441208,9.828776266610411,-0.034182846960376975,-0.00039546049156158363,0.9866605836807061,-0.159161188531102,-0.01012386617945202,-0.06763114162337625,-2.821379671728761,1.516732069513815e-189,-0.43614858755910446,0.0,0.0,-7.186636578385231,-2.3492943135476403,-0.01814659474254178,-0.023734829605542254,-0.005318318866847331,-0.05145605037544073,0.04903935372589403,-0.024317918481801214,0.04597302944682031,1.8355729811452,7.510279468224647,32.04815855469371,0.5826101635706078,5.022905377218001e-19,0.5826101635706078,8.109379172485689,8.10937917248569,-6.3704517697793,95.70147204928502,175.5587702181441,-0.0714195543084907,-6.004380422454948,6.004805160061222,-0.011894014269857388,-9.8799238603657,-30.84372987001095,0.052668881480030905,-2.3492943135476403,-7.186636578385231,-0.01814659474254178,4.3921759985236575,0.05145605037544073,4.392574434188427,7.560812711464882,0.03225249762307003,0.0042657189415534775,7.560881501614205,-0.5826101635706078,-6.3704517697793,8.10937917248569,8.078520536445874,-6.3704517697793,8.10937917248569,8.279377524916992,-1.0661766183341441,8.347743694051887,-0.1280701479647971,-0.024317918481801214,0.04903935372589403,0.04597302944682031,-0.03889208473614571,-0.03851785453549234,0.04597302944682031,-0.037232498593719236,-0.42756741429590195,1.312585964390147,6.542276888588261,1.2687759350623176,0.3362878833986646,0.6559461089072842,0.6559461089072842,6.178225029962253,-0.12490541253025453,6.17948750973181,78.05871633643399,7.8701324048888175,-0.15911076885886233,7.871740614835317,-0.020214284624390892,-0.03069375806665616,0.04597302944682031
4.199999999999999,39.5489606414664,-119.87015424008301,1495.2858393763602,-9.42495158902901e-05,-0.0003398746708744,-0.22053298181324799,-7.317030964209762,-2.3967712072884106,-0.04499711008891652,-2.8099800957108703,31.61507910164981,-29.860520225979695,-1495.3716272016302,-0.03196834217883432,-0.00029836324654699756,0.9868093901457091,-0.15869833186285104,-0.00957707357890451,-0.06323014319519413,-2.8223810844530806,0.006612096185686767,-0.019178550812375617,-0.012254221451494388,-0.8558836324306858,0.03969089600003452,9.778101538321572,-0.03200198342408822,-0.00030844314949279915,0.9868023610305732,-0.15873579969439106,-0.009569734362182008,-0.06329969771667074,-2.8223047799730203,5.503300120339051e-187,-0.46628475637613054,0.0,0.0,-7.180256409333981,-2.3468480220455303,-0.01839812732107564,-0.025505788829239994,-0.04959313083086002,-0.011880269111138542,0.1246432405011831,-0.012166669266768418,-0.11057329439007493,1.086876502294415,12.181853873253424,32.10958615265811,0.7490222275063254,1.8214596497756474e-16,0.7490222275063255,7.896009205455383,7.896009205455383,-6.370451769779301,94.93666644884343,176.88118865381108,0.09868662247393464,-6.306187832832347,6.306959967561078,0.01564789541113833,-10.094316963735292,-31.523650002053834,0.050235531350153906,-2.3468480220455303,-7.180256409333981,-0.01839812732107564,4.393101106767917,0.011880269111138542,4.393177411247978,7.554013735339243,0.025577894103746335,0.0033859875359481856,7.554057038595931,-0.7490222275063255,-6.370451769779301,7.896009205455383,7.865962506558271,-6.370451769779301,7.896009205455383,8.31856397989682,-1.1179334571291657,8.393347478938638,-0.13358979194245402,-0.012166669266768418,0.1246432405011831,-0.11057329439007493,-0.1145246680165494,-0.05067608567541346,-0.11057329439007493,-0.11422079575130069,-0.14041980172048055,1.375556355389183,6.55323643139587,1.3257024222169937,0.36697189889631543,0.6597304970891104,0.6597304970891104,6.15671098342321,-0.1435768592550512,6.158384889556476,78.05628298630411,7.842482251227176,-0.1828896911721868,7.844614490206025,-0.02331615703662857,-0.030552925608433448,-0.11057329439007493
4.3,39.5489581385661,-119.870163569232,1495.28236731908,-9.63322592052603e-05,-0.0003480718719146,-0.226416235403232,-7.326569466316279,-2.39457938786188,-0.046689193589202,-2.80998009571087,31.3686181393047,-30.6333586535258,-1495.36834673853,-0.034223201237088795,-0.0011459896995852999,0.986783341547053,-0.158391216399495,-0.0085917546512119,-0.0679599723935625,-2.82299064943955,0.017198829626199296,0.11862708065018698,-0.0431557639701156,-0.7697273122134229,0.0494448160051678,9.61273943556135,-0.0341990049534445,-0.0011623400797198,0.9867787978330749,-0.158421767299288,-0.008561381959177598,-0.06791417665036538,-2.82293041166107,-4.5965573598916705e-187,-0.510170098208875,0.0,0.0,-7.167593176706679,-2.33808630712649,-0.024710440546578796,-0.031580829659977896,0.0993043360614678,0.0253244449762838,0.188401746591936,0.0384554507081575,-0.11174347750211,-0.04442850499100556,8.16378787952395,32.1498609252268,0.714298966236504,2.52835632690621,0.7929431543385319,7.97864441131203,7.9686441824301895,-6.38292995691743,93.93060941373409,179.31994037827596,0.15850409860543896,-4.602533866072473,4.605262374460194,0.0344248375961236,-10.3407779260804,-32.29648842959994,0.04676347407007597,-2.33808630712649,-7.167593176706679,-0.024710440546578796,4.393726738455967,-0.0253244449762838,4.393786976234447,7.539257538253377,0.02520512317261847,0.003343171279201265,7.539299670814559,-0.7929431543385319,-6.38292995691743,7.9686441824301895,7.929037035214519,-6.38292995691743,7.9686441824301895,8.356370126142671,-1.1705222931212216,8.437952602603517,-0.13916993883658413,0.0384554507081575,0.188401746591936,-0.11174347750211,-0.19096468823533977,-0.022506169270648496,-0.11174347750211,-0.1916029939902452,0.16842134341888199,1.4482530978264407,6.563993899662835,1.3915274354063738,0.40135823384508046,0.6620142113331686,0.6620142113331686,6.13536681627203,-0.16195584864587945,6.137504025833514,78.05281092902403,7.814946194260504,-0.2062918617443636,7.817668472851013,-0.026390964373748212,-0.030325354997856727,-0.11174347750211
4.4,39.5489562513725,-119.870170892471,1495.2795798836003,-9.84511099338239e-05,-0.0003563232853065001,-0.23082341111653404,-7.336451662930451,-2.39000836774909,-0.0509166257462082,-2.80998009571087,31.1580272863376,-31.2968406154485,-1495.36529783839,-0.0424572414077643,-0.0030609979265878006,0.986510388426971,-0.158051493729399,-0.0074266933849968,-0.08483915960176501,-2.82355125081122,0.013702948740828499,0.160449088032242,-0.013247728439784402,-0.9116117798667122,-0.15238373901789004,9.57500966606575,-0.042061974286817606,-0.0029931991582005,0.9865241681184341,-0.15807883082281604,-0.0074139201124209,-0.0840356422325694,-2.82350180369735,0.0,-0.504564720592229,0.0,0.0,-7.16362606543649,-2.33741756647671,-0.0314301190232339,0.0245824298522129,0.184965112284469,0.0446370996283592,0.0722558101091814,-0.040110677532543,-0.135714839444376,-1.29081421940049,10.4225927608502,32.349536049882204,1.0399478782428,-2.0,1.0399478782428,8.139915821308218,8.13983129929369,-6.40535835481919,97.1979800052731,177.36361341642504,-0.010588917082499996,-3.2931475654831286,3.293164589450767,-0.0032154285160470976,-10.5513687790475,-32.95997039152264,0.04397603859024457,-2.33741756647671,-7.16362606543649,-0.0314301190232339,4.394298130492246,-0.0446370996283592,4.3943475776061165,7.535293460239197,0.020291711395782563,0.0026928828258095164,7.53532078185627,-1.0399478782428,-6.40535835481919,8.13983129929369,8.079158231123532,-6.40535835481919,8.13983129929369,8.392608554917725,-1.2238141284272301,8.481367777488268,-0.14479990327074133,-0.040110677532543,0.0722558101091814,-0.135714839444376,-0.05608627763206037,-0.060696770985227674,-0.135714839444376,-0.05699204077526383,0.2756568739283929,1.5108899735736474,6.568468423648596,1.4498228436122542,0.42520845991754885,0.662797063731718,0.662797063731718,6.114095434412035,-0.17999514972655578,6.116744332978384,78.0500234935442,7.787573571767237,-0.2292613005625435,7.790947495627419,-0.02943087484851857,-0.029984409963613123,-0.135714839444376
4.5,39.5489538995291,-119.870180588002,1495.2740923874399,-0.0001007950283363,-0.0003651538082971,-0.22534239712324503,-7.320970323350201,-2.3806146453858,-0.07094717666613258,-2.80998009571087,30.9011739114845,-32.106502067415306,-1495.36039416289,-0.0498059738458546,-0.0037918377253941997,0.98620536093657,-0.15779890117114898,-0.0082937040973529,-0.0996030910299219,-2.82385667855771,0.016408608278893497,0.0985399519085632,0.0245468258233127,-1.07691371965436,-0.0905525374387031,9.82326952904647,-0.0499033543427775,-0.0037839997373442995,0.986203271710127,-0.15779835089754,-0.008329990784069999,-0.0997880976217602,-2.8238520547938495,0.0,-0.47948087581061505,0.0,0.0,-7.1788784619791395,-2.3388458343949,-0.04313058256861451,0.0542834441554358,0.09533457358342728,0.0210128505459131,-0.114420840113481,-0.0501589354603367,-0.0729973914629658,-0.226497536114296,7.53483130994059,31.605168559830403,1.03029078599239,-8.98809599806877,1.03029078599239,8.44934139045538,8.359617677309238,-6.4401511590553095,95.108137940611,175.08891742826296,-0.18697178787299737,-4.368344096892288,4.372343604786124,-0.0427754163736011,-10.808222153900601,-33.76963184348945,0.038488542429831796,-2.3388458343949,-7.1788784619791395,-0.04313058256861451,4.3946483815887465,-0.0210128505459131,4.394653005352607,7.550235244617509,0.02106086109186167,0.002789423876931168,7.550264618470955,-1.03029078599239,-6.4401511590553095,8.359617677309238,8.256845653099527,-6.4401511590553095,8.359617677309238,8.42709040849407,-1.2776719575027133,8.523397115230615,-0.15046887713073565,-0.0501589354603367,-0.114420840113481,-0.0729973914629658,0.12436406684463923,-0.011900686394116573,-0.0729973914629658,0.12392151811814771,0.14675127838751678,1.5670296463410003,6.559305720807341,1.5076711097987514,0.42721158363251543,0.6620788337218794,0.6620788337218794,6.0927965797130055,-0.19764480014744215,6.096001445930588,78.04453599738379,7.759899428696246,-0.25172410594761124,7.7639812061207,-0.032427722546647025,-0.02952771850072555,-0.0729973914629658
4.6000000000000005,39.548951988821706,-119.870188042374,1495.2693674103903,-0.00010313864558830004,-0.00037390459638330005,-0.21972987502726704,-7.304878521154701,-2.37354862249469,-0.0887954302085575,-2.80998009571087,30.696976908112095,-32.7481235206061,-1495.3554705405602,-0.0502196985302191,-0.0021094102659878046,0.9860879024221291,-0.15844613810851904,-0.01180969337810539,-0.09986932635452349,-2.82233872265493,0.03672319475789691,-0.038543811444919286,0.03127226750727987,-1.0048051721365772,0.02251976784412746,9.839685696822828,-0.05027227952511468,-0.0021557952190057903,0.986088925041775,-0.158408578563426,-0.011734416926503614,-0.09999560646009456,-2.8224411502164903,-1.5053323445378655e-175,-0.47526204492409607,0.0,0.0,-7.202937361298531,-2.3446526200755504,-0.04849229034662377,0.033658881596950865,-0.03345436329216298,-0.016041622696874296,-0.20293804749346825,-0.08516385295079351,-0.0899212757348497,0.13053658143120966,9.02804026944826,31.285915522541895,0.9469012711680593,-14.80607665431366,0.9469012711680594,7.940792014922684,7.740834004065535,-6.401179383385309,94.87032156823079,175.7605625741369,-0.1477779043836735,-6.543413911047461,6.545082422728795,-0.02258038227719839,-11.012419157273005,-34.41125329668024,0.033763565380240834,-2.3446526200755504,-7.202937361298531,-0.04849229034662377,4.393237477011387,0.016041622696874296,4.3931350494498265,7.574863930503751,0.033748688428623996,0.004455322951703241,7.574939111281185,-0.9469012711680594,-6.401179383385309,7.740834004065535,7.687010219252886,-6.401179383385309,7.740834004065535,8.459625903994297,-1.3319509620061774,8.563840481975392,-0.15616595167165218,-0.08516385295079351,-0.20293804749346825,-0.0899212757348497,0.21941117667643908,-0.01718919775166944,-0.0899212757348497,0.21995256040272543,-0.13870230690497287,1.6272489929118488,6.538892740020151,1.574338352200823,0.41157992871643195,0.6598592467434256,0.6598592467434256,6.071367154929066,-0.21485212263431008,6.075167533867024,78.0398110203342,7.732138365437682,-0.2736231062830329,7.736978305938649,-0.03537300553119575,-0.028954675479154406,-0.0899212757348497
4.7,39.54894965994939,-119.870197328064,1495.26298643862,-0.00010522413393410001,-0.00038176597821960005,-0.222738672210804,-7.30613540205251,-2.40928652562542,0.0151736499624903,-2.8099800957108707,30.448233035920104,-33.538311766041105,-1495.34928313115,-0.047293186229762994,-0.0011779025759444,0.9860299305155551,-0.159708830815552,-0.012838987938164199,-0.09378003882757992,-2.8198364162223606,0.013888493842208001,-0.05692396661499889,0.0448393591405022,-1.0533742093581702,0.0689193308286119,9.914733407825281,-0.04721479839479001,-0.0012404538346448002,0.9860438704184451,-0.159644210089637,-0.0126851109837712,-0.0936444320792055,-2.81997640152495,-1.263492066235061e-175,-0.4732204424277511,0.0,0.0,-7.219743566989931,-2.3398820348158105,-0.043925593331986604,-0.0672823783358883,-0.0738777408531313,-0.0440236737610079,-0.0956443033050199,0.0087280758855529,0.22438636452517896,-0.157887417825086,5.96949701440702,31.5798440918757,0.859924984294553,-1.9982685381543,0.859924984294553,7.810109602062789,7.81010960206279,-6.31811553955526,94.60271262355832,176.996421645519,-0.0227130602990302,-6.447699503025334,6.4477395081083495,-0.0035226465407101996,-11.261163029464996,-35.20144154211525,0.02738259360990014,-2.3398820348158105,-7.219743566989931,-0.043925593331986604,4.390772728319847,0.0440236737610079,4.390632743017257,7.589194236544703,0.062257127647538546,0.008203206983431877,7.589449592028809,-0.859924984294553,-6.31811553955526,7.81010960206279,7.805345446604782,-6.31811553955526,7.81010960206279,8.490024872131304,-1.3864987404041715,8.602493887620643,-0.16188013591114175,0.0087280758855529,-0.0956443033050199,0.22438636452517896,0.08798126643990672,0.03851374844126124,0.22438636452517896,0.09072205391675939,-0.29559046273730416,1.7059863420395909,6.51786106786564,1.659224893132293,0.3966889880444811,0.6561379295967146,0.6561379295967146,6.049701565477267,-0.23156175613769142,6.054131637009858,78.03343004856386,7.703916370130414,-0.2948794059504275,7.709557789005608,-0.03825788202714335,-0.028264997654277122,0.22438636452517896
4.800000000000001,39.548947614683804,-119.870205360871,1495.2580945731302,-0.00010730293669880001,-0.0003896542431191001,-0.22895702521655706,-7.309251980404272,-2.44944455687632,0.13200181291777233,-2.80998009571087,30.232591563485,-34.22378622660091,-1495.3443860108903,-0.04442893833239347,-0.0034692639768637242,0.9860827876642793,-0.16018071526043004,-0.007419202418670941,-0.08884772394353375,-2.8191961479723004,-0.0532223332407564,-0.06721466035682429,0.027208601638883643,-1.0911118027965117,-0.05560105225328011,9.921380981136096,-0.04450736359102068,-0.003394368009491718,0.986079651481533,-0.16018506759815,-0.007594100444887256,-0.08898009058796615,-2.81918620361028,-7.892276842530684e-170,-0.42805509334766967,0.0,0.0,-7.22581568320258,-2.33101085975421,-0.03677970024825606,-0.08409478680351107,-0.08569066425655504,0.0416413286301659,-0.011503509582387494,0.031762344280276036,0.00015277627898568902,-0.5562141177937496,8.109409032679885,31.261431667817,1.2606238111825139,-5.748767775157676,1.2606238111825137,8.507362258150804,8.461128895051386,-6.44056541502761,92.87633377793205,177.24731000804508,0.7715776006640654,-6.302339657697851,6.349395022743316,0.12182094829686546,-11.476804501900101,-35.88691600267505,0.02249072812014674,-2.33101085975421,-7.22581568320258,-0.03677970024825606,4.3899825304051765,-0.0416413286301659,4.3899924747671975,7.592091095023456,0.07859211648746411,0.010351470807992745,7.592497870655509,-1.2606238111825137,-6.44056541502761,8.461128895051386,8.356560268074949,-6.44056541502761,8.461128895051386,8.518097309338918,-1.441155572444381,8.63914990929978,-0.1676003711545446,0.031762344280276036,-0.011503509582387494,0.00015277627898568902,0.0008469023670631889,0.033770697405761815,0.00015277627898568902,-0.0024257777833315837,0.3499154576837896,1.7796405667899733,6.508020036549546,1.7348487340754657,0.39676241863524775,0.6509142395508062,0.6509142395508062,6.027692077082641,-0.2477157021304963,6.032780026257119,78.0285381830741,7.675407467434049,-0.315430669917914,7.681886246142104,-0.04107316433888258,-0.02745849809131326,0.00015277627898568902
4.9,39.5489454462585,-119.870213441851,1495.25522331425,-0.000109649591012,-0.00039868727038350004,-0.23873834120456203,-7.318349179368629,-2.4229391109557503,-0.0424403447823371,-2.8099800957108707,29.9960490983972,-34.9650811403574,-1495.34103445677,-0.0388476280549928,-0.0055664024689825,0.986414980622208,-0.159510600364148,-0.0014031180212775,-0.0784896602131344,-2.8208992072152106,-0.0870811766873555,-0.14771038806136602,-0.005965908726738201,-1.0529487671551803,-0.0785261169482018,9.75635528458561,-0.03908182091987479,-0.005515491186871,0.9863996177388371,-0.15955504957118397,-0.0015958321773898,-0.0789425271522074,-2.82079736187585,0.0,-0.3896497787312301,0.0,0.0,-7.22459856616989,-2.3303219737886303,-0.0293379656732399,-0.0842277607793655,-0.113514548183775,0.03760777533441031,0.0191414680473785,-0.020860397619679505,0.0187341788291512,0.38766577316769907,6.034202233575991,30.958461940206504,1.14898977191563,-12.110961677627902,1.14898977191563,8.298522157860381,8.11840191193893,-6.422708461178681,94.4277870180403,175.58048996605703,0.6643878579956666,-7.220593988348099,7.251095694474098,0.09175454827708011,-11.7133469669879,-36.62821091643154,0.01961946924006952,-2.3303219737886303,-7.22459856616989,-0.0293379656732399,4.3915936886707465,-0.03760777533441031,4.391695534010108,7.59083561920171,0.06662991884106573,0.008777453634407904,7.5911280415908,-1.14898977191563,-6.422708461178681,8.11840191193893,8.03951072604641,-6.422708461178681,8.11840191193893,8.543653941701697,-1.495754718491284,8.673598149179146,-0.1733155415202371,-0.020860397619679505,0.0191414680473785,0.0187341788291512,-0.01158723564903854,-0.025831917425417586,0.0187341788291512,-0.014093038667363332,0.2596425231419597,1.83000232531651,6.510019791333377,1.7831234887362306,0.4115569639563499,0.644185940202256,0.644185940202256,6.005229188216577,-0.2632533864367966,6.010996585299211,78.02566692419403,7.646522793718655,-0.3352033630727089,7.65386648233912,-0.043809310150859364,-0.02653504158111432,0.0187341788291512
5.0,39.548943240697994,-119.87022206092598,1495.25165865629,-0.0001120529574351,-0.00040797135122240004,-0.24988948270816297,-7.3340566246652905,-2.39153159821699,-0.246147565496244,-2.80998009571087,29.7587186631413,-35.70705185524319,-1495.33795313641,-0.0328592736135107,-0.0059409451236842,0.986744990806606,-0.158811056135659,0.0012985310369638,-0.0667835566965074,-2.8224841445555695,0.006136013236689001,-0.0373475635531532,-0.028727351935890197,-0.8291585248538151,-0.167069113802936,9.54091114348693,-0.0329012263039282,-0.0060070146175129,0.986740665634532,-0.158821545601951,0.0014078028584782998,-0.0668877377989508,-2.82246562159819,-6.783321379043816e-167,-0.39710701962650397,0.0,0.0,-7.20825900014151,-2.33137133257851,-0.04047727059003961,-0.004096053229862,-0.0242867022482992,-0.0352669798136275,0.20761607577386,-0.0554856875382254,-0.11378555834864798,0.235103380512397,5.880754838109681,31.086098499237096,0.714637297592646,-10.5120901869635,0.714637297592646,7.9189897226285595,7.77850624912563,-6.3704517697793,93.8020846703426,178.08026494307097,-0.05800332361534499,-6.781482727098188,6.781730779342507,-0.008552983404963306,-11.950677402243802,-37.37018163131734,0.016054811279900605,-2.33137133257851,-7.20825900014151,-0.04047727059003961,4.393261948393087,0.0352669798136275,4.393280471350466,7.57575085984604,0.04784363104903466,0.006315280938733456,7.5759019333337445,-0.714637297592646,-6.3704517697793,7.77850624912563,7.748906684452464,-6.3704517697793,7.77850624912563,8.566506799011304,-1.550122753582352,8.705625726430045,-0.17901448035150053,-0.0554856875382254,0.20761607577386,-0.11378555834864798,-0.17972551320710228,-0.11782120498352772,-0.11378555834864798,-0.17803821283668533,-0.38499505763078923,1.880184538124689,6.519061587929249,1.828122100696471,0.4393898978677957,0.6355889868847547,0.6355889868847547,5.982202016182052,-0.27811173690628027,5.988663214826631,78.02210226623386,7.616854051081143,-0.35410648189038824,7.625080788817126,-0.046456410859037234,-0.025494528595303437,-0.11378555834864798
5.100000000000001,39.5489409243165,-119.87023060052601,1495.2471046571902,-0.00011430461466040005,-0.0004165710225927002,-0.2565120793671192,-7.357386088901611,-2.39463238782161,-0.12796447741159897,-2.8099800957108703,29.5432008980479,-36.38179942768282,-1495.3334020990203,-0.03199808050007849,-0.001406619178020621,0.9868972517632573,-0.158137599628704,-0.007358404585879552,-0.06364086407851356,-2.8235810572638305,0.07848569608815371,-0.011816394872916764,0.0015879697480611441,-0.8892386774371998,-0.11629879687625297,9.805213593564853,-0.032045709872902485,-0.001653093055353406,0.9868968417544153,-0.158132474046508,-0.00688551988422298,-0.06381774552336303,-2.8236017255037105,5.997975563063639e-161,-0.395255288351361,0.0,0.0,-7.187981795044281,-2.33246457542827,-0.04401912334188458,0.07220714479173984,-0.011751081700270335,-0.02247095116032605,0.18792845064834013,-0.02706892337490864,0.06592780905211665,0.4441867539437912,7.102735977691971,30.726624638588685,0.7707190279099884,-11.000000000000016,0.7707190279099884,7.877439785240229,7.735999424355242,-6.380504758783664,91.99020381137812,151.94586574179584,-1.3638537832713111,-5.777405496807528,5.936203451422912,-0.23182271462411772,-12.1661951673372,-38.044929203756965,0.011500812180202047,-2.33246457542827,-7.187981795044281,-0.04401912334188458,4.394398052298607,0.02247095116032605,4.394377384058727,7.556881520754622,0.03185848070892261,0.004215798789669155,7.55694867532629,-0.7707190279099884,-6.380504758783664,7.735999424355242,7.699394211008313,-6.380504758783664,7.735999424355242,8.586469797199436,-1.6040799359227795,8.735017803018387,-0.18468597241380824,-0.02706892337490864,0.18792845064834013,0.06592780905211665,-0.17004341131523357,-0.08446932842186314,0.06592780905211665,-0.16932752095118117,-0.25427964399911074,1.9329631455369356,6.526920238977522,1.8758313248682925,0.46647975588112167,0.6247337507968233,0.6247337507968233,5.958498695632266,-0.29222527717723007,5.965660258384878,78.01754826713416,7.5862309179709415,-0.3720548658271198,7.595348863874778,-0.049004176577623224,-0.02433687733995183,0.06592780905211665
5.200000000000001,39.548938622537804,-119.87023951803201,1495.2419552139304,-0.00011650433091300005,-0.00042497896314220017,-0.2634218838860812,-7.372382907540881,-2.4002195856538204,-0.016681445122765367,-2.8099800957108707,29.300670844275402,-37.142896350965906,-1495.3282599778802,-0.029842761079239062,0.0035172767200843374,0.9870717772256982,-0.15743677933777803,-0.016368407147745262,-0.057838640277946524,-2.824786054109801,0.04511807766133585,-0.07899385936134277,-0.010806280501882664,-0.9367173205728345,-0.12008841478628264,9.869276865408532,-0.029972851904453958,0.0033938168390709443,0.9870678366809311,-0.15743925425392202,-0.016165695385756775,-0.058134594200356215,-2.8247834554548503,-2.1694125394974356e-158,-0.3716384054583479,0.0,0.0,-7.179699792140311,-2.3174402343413005,-0.04222667012999479,0.08686626643334584,-0.09226565177865056,-0.009512303475342904,0.10102776459580122,0.13083549073983483,-0.0072055163001697505,-0.08497172374111585,5.2479584159674895,30.721586536049404,1.8654413655901196,-17.856102926626278,1.8654413655901199,9.101496464921947,8.705026308080575,-6.499804427177482,95.34034446182193,176.1111030456989,-0.9708010973393993,-6.598815907636423,6.669844537428956,-0.14606966164778765,-12.408725221109698,-38.80602612704005,0.006351368920377354,-2.3174402343413005,-7.179699792140311,-0.04222667012999479,4.395579782249747,0.009512303475342904,4.395582380904697,7.544363423803153,0.03462476836942496,0.004589456170429906,7.544442878371038,-1.8654413655901199,-6.499804427177482,8.705026308080575,8.501587046112826,-6.499804427177482,8.705026308080575,8.603359327323975,-1.6574406093936966,8.76155814274606,-0.19031875178336727,0.13083549073983483,0.10102776459580122,-0.0072055163001697505,-0.1367600316100533,0.09285057140575526,-0.0072055163001697505,-0.13643067030555986,0.02108629699026264,1.9961356582904224,6.525593555514169,1.9377740646379007,0.47915471480018557,0.6115921810292478,0.6115921810292478,5.934006788248288,-0.3055262366963462,5.941866949392808,78.01239882387434,7.554549693489795,-0.388963683418506,7.5645564191448305,-0.05144191746072524,-0.023062019375475886,-0.0072055163001697505
5.300000000000002,39.548936693718304,-119.87024762641501,1495.2366396637804,-0.00011868086770570007,-0.00043335282417700016,-0.27592925697876935,-7.35166655055534,-2.4082526618148004,-0.055995648339140565,-2.8099800957108703,29.085086758414697,-37.830198296192414,-1495.3229063377803,-0.024890723900906145,0.004905554571114997,0.987280607541813,-0.15696010063031804,-0.017501148171091673,-0.04762188405648488,-2.82585134720319,-0.045781184395869146,-0.114038243583402,-0.020501843972186014,-0.9468342477270788,-0.024709771461907067,9.929723340548373,-0.02464588414377973,0.004972937919986697,0.9872713037992171,-0.15704551742142703,-0.017581140120164672,-0.04711970754430927,-2.8256807953621803,3.144666612007509e-155,-0.3896593123841478,0.0,0.0,-7.1669725911420015,-2.2915449681432194,-0.037121522216626894,-0.028030698871006236,-0.15722101399892516,0.01963170112923668,0.17909285154522214,0.26061377810640973,0.05783553454484063,-0.2940778938772327,10.161020626756583,30.829597146716228,1.3200000901230506,-9.000000000000195,1.06000077800621,7.900002773623415,7.790002238368387,-6.422811662017383,96.20001473038683,174.90233888574386,0.2635781386481969,-7.2438455246876075,7.248639280631222,0.03637044802774158,-12.624309306970403,-39.49332807226656,0.0010358187703332078,-2.2915449681432194,-7.1669725911420015,-0.037121522216626894,4.396477122157076,-0.01963170112923668,4.396647673998086,7.52424885287389,0.04851456718514191,0.006447672829744042,7.524405256444074,-1.06000077800621,-6.422811662017383,7.790002238368387,7.7141904561680175,-6.422811662017383,7.790002238368387,8.616994849216288,-1.710013639503102,8.785029702778852,-0.19590149533370804,0.26061377810640973,0.17909285154522214,0.05783553454484063,-0.2511985260816825,0.19207574367391167,0.05783553454484063,-0.2521509495650755,0.33978954837553377,2.070390124165132,6.52327840303649,2.0110027257139733,0.4923243883980162,0.596163421696071,0.596163421696071,5.908613702246078,-0.31794467708676566,5.91716187881132,78.00708327372429,7.5217093591888995,-0.404745947842,7.532591251780783,-0.05375852097155273,-0.021669897604486,0.05783553454484063
5.4,39.548934478062996,-119.87025635907702,1495.23244757745,-0.0001208386858447,-0.0004417309131534001,-0.28713765161838,-7.32422461739529,-2.4136113720873005,-0.09876194959574182,-2.8099800957108707,28.852348979667205,-38.5781427493292,-1495.3182134825402,-0.0179747751524268,0.0011846168480171002,0.9873824743401161,-0.15732541889215604,-0.0080045595345767,-0.0351381336749626,-2.8254378813007706,-0.11524287442625102,-0.08826789516341882,0.004552538991466499,-0.8028727613600741,-0.10108434817533202,9.75954883128466,-0.0180480836855415,0.0012624655438843,0.9873815879755131,-0.157324891947946,-0.0081771943505083,-0.0352504007725621,-2.82543498688847,0.0,-0.40493936825748,0.0,0.0,-7.1387916093704,-2.2609397791492105,-0.026269027154601304,-0.11495365612010701,-0.08971887904086791,0.0404868722493082,0.34442611625634,0.255929617848309,0.113465033975612,0.07871519318607118,3.68907129417234,30.7135775215658,1.1235353708613203,-4.16366130118971,1.1235353708613203,8.38635248382752,8.36471545363264,-6.411071211946911,94.0113011735251,176.22908217094403,1.4448813355981194,-7.115496556368071,7.260714380668452,0.2003372900731475,-12.857047085717895,-40.241272525403346,-0.0031562675599161594,-2.2609397791492105,-7.1387916093704,-0.026269027154601304,4.396231313683367,-0.0404868722493082,4.396234208095667,7.487936777719465,0.07069045078886749,0.009440297496571028,7.488270449640324,-1.1235353708613203,-6.411071211946911,8.36471545363264,8.29640698390259,-6.411071211946911,8.36471545363264,8.627199487834078,-1.7616028820608371,8.805215256708358,-0.2014228117217901,0.255929617848309,0.34442611625634,0.113465033975612,-0.4069282123809217,0.13615707407209798,0.113465033975612,-0.4097902476312566,0.43932021380252245,2.1575955089550893,6.523299975300223,2.0956956290460624,0.5131064320980593,0.5784471541679779,0.5784471541679779,5.882207120333153,-0.32940863487658145,5.89142348293087,78.00289118739404,7.487691174476861,-0.41931711646735637,7.499423042374739,-0.055942424721652534,-0.020160460567906918,0.113465033975612
5.5,39.54893235869719,-119.87026519272402,1495.22876608687,-0.0001230016820394,-0.0004502784078639,-0.293094188811711,-7.314471679998849,-2.3910127328201303,-0.105496974328365,-2.80998009571087,28.621750891791798,-39.3144278119877,-1495.31463520842,-0.0175845575410377,-0.0042675263232927,0.987309778740967,-0.157765053915994,0.0028801822941892,-0.036077456383620005,-2.8247413226901994,-0.072112391189803,0.0729238643120344,-0.0477538764484039,-0.773603001483215,-0.005109599393317697,9.75002517802024,-0.0175638805712297,-0.0042791083690374,0.9873093000830089,-0.157771150815158,0.0029096090416447,-0.036039742535517,-2.82472822329838,0.0,-0.406053433593436,0.0,0.0,-7.08983451659147,-2.24460426880811,-0.0134365833728244,-0.163836090258285,0.105012301180053,-0.011454539852779699,0.516239498270448,0.118871621962478,0.090495223872937,0.733568744780856,7.01353992626405,30.6714497108995,0.851551802772663,-7.082100875149119,0.851551802772663,8.18638249038527,8.117528684172942,-6.38981404824259,94.8687240539069,176.140927960795,1.3354673008290696,-4.892405281353855,5.071400432681565,0.26647556740726114,-13.087645173593302,-40.97755758806184,-0.006837758139909056,-2.24460426880811,-7.08983451659147,-0.0134365833728244,4.395524550093277,0.011454539852779699,4.395537649485096,7.436275120404043,0.07625044172471762,0.010253489589730587,7.436666040384185,-0.851551802772663,-6.38981404824259,8.117528684172942,8.071425504639489,-6.38981404824259,8.117528684172942,8.633800630306279,-1.8120076837092878,8.82189804802224,-0.20687122576315733,0.118871621962478,0.516239498270448,0.090495223872937,-0.5275786419045642,-0.04790050822955713,0.090495223872937,-0.5267052281810364,-0.1330796179524594,2.2359754236427003,6.5315056415812816,2.1673904788960017,0.5495494583066332,0.5584431895308213,0.5584431895308213,5.854675434689581,-0.3398442805191493,5.864530550739693,77.99920969681405,7.4522932752123605,-0.43258063996617097,7.464837645243794,-0.05798158448871302,-0.018533661716144324,0.090495223872937
5.600000000000002,39.5489302621909,-119.870273518711,1495.22705078125,-0.00012513562599000006,-0.0004587543870260002,-0.2957717957681049,-7.303917219918739,-2.3574699573146596,-0.10793888814573985,-2.80998009571087,28.391264931955998,-40.04999994364621,-1495.31237773266,-0.02229319997349015,-0.008125615767848628,0.987107369978568,-0.158293355086646,0.008993596635318271,-0.046600718705020035,-2.82378742820476,0.023085240553779102,0.11839309197687871,-0.029109690227007615,-0.9218873041416227,-0.08626904932561276,9.78725965784488,-0.022382060237702887,-0.008237691573735018,0.9871010079822639,-0.158312474028998,0.009185999386513106,-0.04681174684060828,-2.82375369919943,-1.7889707344653685e-146,-0.4116494925582259,0.0,0.0,-7.045156944269209,-2.24362407353268,-0.006001014132363211,-0.08842678089127913,0.10294847588880192,0.01406834399160994,0.4689731951079199,-0.034004421240450104,0.04824872752375324,1.8274515910235443,10.31634331890223,30.889973363627362,1.1217630343760723,-8.923611987053853,1.1217630343760725,8.29266431343763,8.14541261215568,-6.4197829767654735,94.61958692057645,175.56973539071595,0.3362279773476521,-4.162464707995486,4.1760222339038435,0.08060117696709518,-13.318131133429102,-41.71312971972036,-0.008553063760018631,-2.24362407353268,-7.045156944269209,-0.006001014132363211,4.394550025994326,-0.01406834399160994,4.3945837549996565,7.3934511497181505,0.0704659453310188,0.009530571092623211,7.39378694261067,-1.1217630343760725,-6.4197829767654735,8.14541261215568,8.069538385182998,-6.4197829767654735,8.14541261215568,8.636630521604886,-1.861023413290612,8.834862472700575,-0.21223515806679188,-0.034004421240450104,0.4689731951079199,0.04824872752375324,-0.4348568574907934,-0.17886215890137547,0.04824872752375324,-0.43584819664940416,-0.07484854484197652,2.2969863066969505,6.5372359454099875,2.2232584022006523,0.5772938335003249,0.5361514062039937,0.5361514062039937,5.825908187506351,-0.349176093553449,5.836362750340556,77.99749439119394,7.415512970551387,-0.4444491343521096,7.42882007114469,-0.05986343700291883,-0.016789459162519556,0.04824872752375324
